TrialNumber,cxt1,cxt2,eyes,cond,im1,im2,dissim,pair,ori,ran,order,rt,acc
1,0,0,57_45,ISOD,57_45-5.png,57_45-95.png,90,May-95,180,1,0,12.4089985,1
2,41,41,208_20,SD,41-208_20-80.png,41-208_20-95.png,15,80-95,180,1,1,2.1068993,0
3,129,129,37_94,SS,129-37_94-5.png,131-37_94-5.png,0,5-May,0,1,2,3.2249231,1
4,129,131,37_94,DD,129-37_94-35.png,131-37_94-65.png,30,35-65,180,1,3,2.2810307,1
5,0,0,197_135,ISOS,197_135-80.png,197_135-80.png,0,80-80,0,1,4,3.8110263,1
6,213,222,58_142,DD,213-58_142-35.png,222-58_142-50.png,15,35-50,0,1,5,3.9731984,0
7,9,148,52_145,DS,9-52_145-80.png,148-52_145-80.png,0,80-80,180,1,6,3.421343,1
8,0,0,147_55,ISOD,147_55-5.png,147_55-95.png,90,May-95,0,1,7,1.7654771,1
9,139,139,197_135,SS,139-197_135-95.png,103-197_135-95.png,0,95-95,0,1,8,3.6314638,1
10,9,9,52_145,SS,9-52_145-20.png,148-52_145-20.png,0,20-20,180,1,9,2.6435819,1
11,2,2,93_8,SS,2-93_8-5.png,46-93_8-5.png,0,5-May,180,1,10,2.9095116,1
12,0,0,37_94,ISOD,37_94-35.png,37_94-65.png,30,35-65,180,1,11,3.0121026,0
13,100,100,123_44,SS,100-123_44-20.png,90-123_44-20.png,0,20-20,0,1,12,1.7021505,0
14,220,220,111_129,SD,220-111_129-35.png,220-111_129-65.png,30,35-65,180,1,13,2.3801436,0
15,125,17,38_9,DD,125-38_9-5.png,17-38_9-20.png,15,20-May,180,1,14,3.0201786,0
16,49,151,87_146,DS,49-87_146-20.png,151-87_146-20.png,0,20-20,180,1,15,4.1084094,1
17,66,66,140_143,SD,66-140_143-65.png,66-140_143-35.png,30,65-35,180,1,16,3.4420156,0
18,9,9,52_145,SD,9-52_145-65.png,9-52_145-35.png,30,65-35,0,1,17,3.4060776,1
19,0,0,90_17,ISOS,90_17-95.png,90_17-95.png,0,95-95,0,1,18,2.786186,1
20,0,0,90_17,ISOS,90_17-50.png,90_17-50.png,0,50-50,180,1,19,3.732227,1
21,2,46,93_8,DD,2-93_8-35.png,46-93_8-65.png,30,35-65,0,1,20,4.592311,1
22,0,0,100_125,ISOS,100_125-20.png,100_125-20.png,0,20-20,0,1,21,2.3904896,1
23,0,0,222_139,ISOD,222_139-5.png,222_139-95.png,90,May-95,0,1,22,1.4825684,1
24,0,0,100_125,ISOD,100_125-35.png,100_125-65.png,30,35-65,0,1,23,2.5265799,1
25,143,143,57_45,SD,143-57_45-65.png,143-57_45-35.png,30,65-35,180,1,24,3.9626105,1
26,49,151,87_146,DS,49-87_146-80.png,151-87_146-80.png,0,80-80,180,1,25,3.398711,1
27,13,96,225_128,DS,13-225_128-80.png,96-225_128-80.png,0,80-80,0,1,26,1.8907831,0
28,66,66,140_143,SD,66-140_143-35.png,66-140_143-50.png,15,35-50,180,1,27,2.034861,0
29,0,0,46_53,ISOS,46_53-50.png,46_53-50.png,0,50-50,0,1,28,4.351616,1
30,123,123,100_125,SD,123-100_125-5.png,123-100_125-20.png,15,20-May,0,1,29,1.9735191,0
31,7,25,147_55,DS,7-147_55-80.png,25-147_55-80.png,0,80-80,180,1,30,3.565546,1
32,143,140,57_45,DD,143-57_45-5.png,140-57_45-95.png,90,May-95,0,1,31,1.5116476,1
33,213,222,58_142,DS,213-58_142-50.png,222-58_142-50.png,0,50-50,0,1,32,2.4532638,1
34,0,0,216_220,ISOD,216_220-35.png,216_220-95.png,60,35-95,0,1,33,1.3812869,1
35,0,0,215_126,ISOS,215_126-80.png,215_126-80.png,0,80-80,180,1,34,2.8433347,1
36,20,208,65_13,DS,20-65_13-50.png,208-65_13-50.png,0,50-50,180,1,35,2.3073695,1
37,66,57,140_143,DD,66-140_143-35.png,57-140_143-50.png,15,35-50,0,1,36,3.4194245,1
38,0,0,87_146,ISOD,87_146-65.png,87_146-35.png,30,65-35,180,1,37,3.445625,1
39,0,0,151_49,ISOS,151_49-20.png,151_49-20.png,0,20-20,180,1,38,2.3215349,1
40,152,152,215_126,SS,152-215_126-20.png,153-215_126-20.png,0,20-20,180,1,39,3.035684,0
41,123,44,100_125,DD,123-100_125-5.png,44-100_125-65.png,60,May-65,180,1,40,2.8978064,0
42,0,0,208_20,ISOS,208_20-65.png,208_20-65.png,0,65-65,0,1,41,2.975764,0
43,0,0,216_220,ISOD,216_220-95.png,216_220-5.png,90,95-5,180,1,42,2.2098806,1
44,220,220,111_129,SD,220-111_129-35.png,220-111_129-95.png,60,35-95,180,1,43,3.1140356,1
45,7,25,147_55,DS,7-147_55-50.png,25-147_55-50.png,0,50-50,0,1,44,3.9122257,1
46,33,33,150_213,SS,33-150_213-50.png,217-150_213-50.png,0,50-50,0,1,45,2.548224,1
47,77,77,153_152,SD,77-153_152-35.png,77-153_152-65.png,30,35-65,180,1,46,3.2506695,0
48,0,0,90_17,ISOS,90_17-80.png,90_17-80.png,0,80-80,180,1,47,3.6308076,0
49,13,96,225_128,DD,13-225_128-95.png,96-225_128-35.png,60,95-35,180,1,48,2.2366345,1
50,20,208,65_13,DD,20-65_13-5.png,208-65_13-95.png,90,May-95,180,1,49,1.9447086,1
51,26,38,90_17,DS,26-90_17-20.png,38-90_17-20.png,0,20-20,180,1,50,2.8526998,1
52,125,17,38_9,DS,125-38_9-80.png,17-38_9-80.png,0,80-80,0,1,51,3.678734,1
53,53,87,151_49,DD,53-151_49-5.png,87-151_49-95.png,90,May-95,180,1,52,1.7329177,1
54,146,146,25_7,SS,146-25_7-35.png,147-25_7-35.png,0,35-35,0,1,53,3.2829053,1
55,13,13,225_128,SD,13-225_128-5.png,13-225_128-95.png,90,May-95,0,1,54,1.2610068,1
56,41,65,208_20,DD,41-208_20-5.png,65-208_20-95.png,90,May-95,180,1,55,2.9150784,1
57,2,46,93_8,DS,2-93_8-50.png,46-93_8-50.png,0,50-50,0,1,56,3.0491457,1
58,100,100,123_44,SD,100-123_44-5.png,100-123_44-20.png,15,20-May,0,1,57,2.73926,0
59,0,0,153_152,ISOD,153_152-5.png,153_152-65.png,60,May-65,180,1,58,3.3952286,0
60,0,0,65_13,ISOS,65_13-80.png,65_13-80.png,0,80-80,180,1,59,3.0754132,1
61,0,0,225_128,ISOS,225_128-50.png,225_128-50.png,0,50-50,180,1,60,2.433446,1
62,45,45,160_24,SS,45-160_24-5.png,76-160_24-5.png,0,5-May,180,1,61,3.367976,1
63,0,0,111_129,ISOD,111_129-35.png,111_129-95.png,60,35-95,180,1,62,3.3881042,1
64,126,126,217_33,SD,126-217_33-35.png,126-217_33-65.png,30,35-65,0,1,63,3.9242294,0
65,20,208,65_13,DD,20-65_13-65.png,208-65_13-35.png,30,65-35,0,1,64,3.568251,0
66,0,0,147_55,ISOS,147_55-50.png,147_55-50.png,0,50-50,0,1,65,2.6579072,1
67,135,135,103_192,SS,135-103_192-5.png,197-103_192-5.png,0,5-May,0,1,66,3.2719488,1
68,13,96,225_128,DD,13-225_128-80.png,96-225_128-95.png,15,80-95,0,1,67,3.4200795,1
69,128,225,96_30,DS,128-96_30-5.png,225-96_30-5.png,0,5-May,180,1,68,2.6761737,1
70,0,0,150_213,ISOS,150_213-20.png,150_213-20.png,0,20-20,0,1,69,2.4341743,1
71,192,192,216_220,SD,192-216_220-95.png,192-216_220-5.png,90,95-5,0,1,70,1.4222786,1
72,0,0,58_142,ISOS,58_142-5.png,58_142-5.png,0,5-May,180,1,71,2.3982906,1
73,0,0,123_44,ISOD,123_44-35.png,123_44-65.png,30,35-65,180,1,72,2.2663567,0
74,129,129,37_94,SS,129-37_94-5.png,131-37_94-5.png,0,5-May,180,1,73,2.0103502,1
75,152,153,215_126,DS,152-215_126-5.png,153-215_126-5.png,0,5-May,180,1,74,1.3003966,1
76,20,208,65_13,DS,20-65_13-80.png,208-65_13-80.png,0,80-80,0,1,75,4.3145328,0
77,0,0,76_2,ISOD,76_2-35.png,76_2-65.png,30,35-65,180,1,76,2.9846466,1
78,20,208,65_13,DS,20-65_13-95.png,208-65_13-95.png,0,95-95,180,1,77,2.3206782,1
79,0,0,52_145,ISOD,52_145-5.png,52_145-95.png,90,May-95,0,1,78,1.346753,1
80,0,0,87_146,ISOD,87_146-5.png,87_146-95.png,90,May-95,0,1,79,2.4673066,1
81,26,38,90_17,DS,26-90_17-20.png,38-90_17-20.png,0,20-20,0,1,80,2.3314764,1
82,24,160,76_2,DD,24-76_2-95.png,160-76_2-5.png,90,95-5,0,1,81,3.0273592,1
83,125,125,38_9,SS,125-38_9-95.png,17-38_9-95.png,0,95-95,180,1,82,1.7474471,1
84,24,160,76_2,DD,24-76_2-35.png,160-76_2-95.png,60,35-95,180,1,83,3.4195185,1
85,9,148,52_145,DS,9-52_145-20.png,148-52_145-20.png,0,20-20,0,1,84,3.3970675,1
86,0,0,216_220,ISOS,216_220-50.png,216_220-50.png,0,50-50,0,1,85,2.3132088,1
87,0,0,147_55,ISOD,147_55-65.png,147_55-35.png,30,65-35,180,1,86,3.711271,0
88,49,151,87_146,DD,49-87_146-65.png,151-87_146-35.png,30,65-35,0,1,87,2.9033747,1
89,26,26,90_17,SD,26-90_17-5.png,26-90_17-20.png,15,20-May,180,1,88,3.639435,0
90,0,0,123_44,ISOD,123_44-5.png,123_44-65.png,60,May-65,180,1,89,1.6275232,1
91,0,0,216_220,ISOD,216_220-35.png,216_220-95.png,60,35-95,180,1,90,5.1635723,0
92,45,76,160_24,DS,45-160_24-50.png,76-160_24-50.png,0,50-50,0,1,91,3.623721,1
93,41,65,208_20,DS,41-208_20-95.png,65-208_20-95.png,0,95-95,180,1,92,2.575852,1
94,135,197,103_192,DS,135-103_192-65.png,197-103_192-65.png,0,65-65,0,1,93,2.871847,1
95,20,20,65_13,SD,20-65_13-95.png,20-65_13-35.png,60,95-35,180,1,94,2.350014,1
96,20,20,65_13,SS,20-65_13-20.png,208-65_13-20.png,0,20-20,180,1,95,3.4640172,0
97,128,225,96_30,DS,128-96_30-20.png,225-96_30-20.png,0,20-20,0,1,96,3.6406744,1
98,0,0,93_8,ISOD,93_8-35.png,93_8-95.png,60,35-95,0,1,97,1.9507766,1
99,0,0,131_41,ISOD,131_41-50.png,131_41-65.png,15,50-65,0,1,98,2.9547367,0
100,0,0,222_139,ISOD,222_139-65.png,222_139-35.png,30,65-35,180,1,99,2.1824558,0
101,0,0,58_142,ISOS,58_142-5.png,58_142-5.png,0,5-May,0,1,100,2.9564905,1
102,0,0,90_17,ISOD,90_17-35.png,90_17-65.png,30,35-65,180,1,101,2.0565279,1
103,0,0,111_129,ISOS,111_129-80.png,111_129-80.png,0,80-80,180,1,102,1.8347343,1
104,139,139,197_135,SD,139-197_135-65.png,139-197_135-35.png,30,65-35,0,1,103,3.3987885,0
105,49,49,87_146,SD,49-87_146-95.png,49-87_146-35.png,60,95-35,180,1,104,3.4047787,1
106,2,2,93_8,SS,2-93_8-5.png,46-93_8-5.png,0,5-May,0,1,105,4.0628967,1
107,135,197,103_192,DD,135-103_192-65.png,197-103_192-35.png,30,65-35,0,1,106,2.7749567,0
108,0,0,153_152,ISOS,153_152-80.png,153_152-80.png,0,80-80,180,1,107,3.5269902,1
109,213,213,58_142,SS,213-58_142-80.png,222-58_142-80.png,0,80-80,0,1,108,4.0590544,1
110,0,0,160_24,ISOS,160_24-20.png,160_24-20.png,0,20-20,180,1,109,2.5471957,1
111,100,100,123_44,SS,100-123_44-20.png,90-123_44-20.png,0,20-20,180,1,110,2.771251,1
112,2,46,93_8,DS,2-93_8-20.png,46-93_8-20.png,0,20-20,180,1,111,2.5713403,1
113,213,222,58_142,DS,213-58_142-80.png,222-58_142-80.png,0,80-80,180,1,112,2.595886,1
114,135,135,103_192,SS,135-103_192-5.png,197-103_192-5.png,0,5-May,180,1,113,3.5058558,1
115,8,93,46_53,DD,8-46_53-35.png,93-46_53-65.png,30,35-65,180,1,114,1.9120963,1
116,220,216,111_129,DD,220-111_129-50.png,216-111_129-65.png,15,50-65,0,1,115,3.4040954,1
117,33,33,150_213,SD,33-150_213-5.png,33-150_213-20.png,15,20-May,0,1,116,1.7677444,0
118,139,103,197_135,DS,139-197_135-80.png,103-197_135-80.png,0,80-80,0,1,117,3.5937667,1
119,8,93,46_53,DD,8-46_53-95.png,93-46_53-5.png,90,95-5,0,1,118,1.463952,1
120,45,45,160_24,SD,45-160_24-35.png,45-160_24-65.png,30,35-65,180,1,119,2.1658683,1
121,2,2,93_8,SD,2-93_8-50.png,2-93_8-65.png,15,50-65,0,1,120,2.0138886,0
122,2,2,93_8,SS,2-93_8-20.png,46-93_8-20.png,0,20-20,180,1,121,3.5400202,1
123,0,0,151_49,ISOS,151_49-50.png,151_49-50.png,0,50-50,180,1,122,3.5520544,1
124,142,58,222_139,DS,142-222_139-50.png,58-222_139-50.png,0,50-50,0,1,123,3.1421614,1
125,20,20,65_13,SS,20-65_13-80.png,208-65_13-80.png,0,80-80,0,1,124,2.6002522,1
126,77,215,153_152,DD,77-153_152-5.png,215-153_152-20.png,15,20-May,180,1,125,3.738289,1
127,0,0,225_128,ISOD,225_128-80.png,225_128-95.png,15,80-95,0,1,126,2.9704704,0
128,142,142,222_139,SS,142-222_139-50.png,58-222_139-50.png,0,50-50,180,1,127,3.468596,1
129,0,0,100_125,ISOD,100_125-5.png,100_125-65.png,60,May-65,180,1,128,1.9706243,1
130,7,7,147_55,SD,7-147_55-95.png,7-147_55-35.png,60,95-35,180,1,129,2.1085799,1
131,126,150,217_33,DD,126-217_33-95.png,150-217_33-5.png,90,95-5,0,1,130,2.0911624,1
132,0,0,93_8,ISOD,93_8-35.png,93_8-65.png,30,35-65,180,1,131,2.717225,1
133,0,0,123_44,ISOD,123_44-5.png,123_44-20.png,15,20-May,180,1,132,2.0272822,0
134,142,58,222_139,DS,142-222_139-35.png,58-222_139-35.png,0,35-35,0,1,133,3.939339,1
135,53,53,151_49,SD,53-151_49-95.png,53-151_49-35.png,60,95-35,0,1,134,2.0114222,1
136,2,46,93_8,DS,2-93_8-20.png,46-93_8-20.png,0,20-20,0,1,135,4.1170435,1
137,135,135,103_192,SD,135-103_192-65.png,135-103_192-35.png,30,65-35,180,1,136,2.0111523,0
138,0,0,38_9,ISOS,38_9-5.png,38_9-5.png,0,5-May,180,1,137,1.701101,1
139,213,222,58_142,DD,213-58_142-5.png,222-58_142-95.png,90,May-95,0,1,138,2.7091937,1
140,0,0,57_45,ISOD,57_45-65.png,57_45-35.png,30,65-35,0,1,139,2.7232776,1
141,20,20,65_13,SS,20-65_13-35.png,208-65_13-35.png,0,35-35,0,1,140,1.9673315,1
142,135,135,103_192,SS,135-103_192-80.png,197-103_192-80.png,0,80-80,0,1,141,3.1994085,1
143,135,197,103_192,DS,135-103_192-80.png,197-103_192-80.png,0,80-80,0,1,142,2.189509,1
144,220,220,111_129,SS,220-111_129-20.png,216-111_129-20.png,0,20-20,180,1,143,3.121608,1
145,0,0,25_7,ISOD,25_7-80.png,25_7-95.png,15,80-95,180,1,144,2.9457693,0
146,33,33,150_213,SD,33-150_213-95.png,33-150_213-5.png,90,95-5,0,1,145,1.3938687,1
147,145,52,148_66,DS,145-148_66-80.png,52-148_66-80.png,0,80-80,0,1,146,3.196,1
148,0,0,215_126,ISOD,215_126-35.png,215_126-65.png,30,35-65,0,1,147,3.906523,0
149,26,38,90_17,DD,26-90_17-95.png,38-90_17-5.png,90,95-5,180,1,148,1.7126186,1
150,0,0,52_145,ISOD,52_145-65.png,52_145-35.png,30,65-35,0,1,149,3.214574,1
151,45,76,160_24,DD,45-160_24-95.png,76-160_24-5.png,90,95-5,0,1,150,3.0626636,1
152,152,152,215_126,SS,152-215_126-65.png,153-215_126-65.png,0,65-65,0,1,151,1.8943502,1
153,128,225,96_30,DD,128-96_30-65.png,225-96_30-35.png,30,65-35,180,1,152,3.9923985,0
154,192,192,216_220,SS,192-216_220-5.png,111-216_220-5.png,0,5-May,0,1,153,2.828517,1
155,0,0,215_126,ISOS,215_126-50.png,215_126-50.png,0,50-50,0,1,154,3.302571,1
156,0,0,103_192,ISOS,103_192-20.png,103_192-20.png,0,20-20,0,1,155,2.6727297,1
157,142,58,222_139,DS,142-222_139-50.png,58-222_139-50.png,0,50-50,180,1,156,2.6947124,1
158,53,53,151_49,SD,53-151_49-80.png,53-151_49-95.png,15,80-95,0,1,157,3.1205497,0
159,0,0,57_45,ISOD,57_45-65.png,57_45-5.png,60,65-5,0,1,158,2.1428845,1
160,135,197,103_192,DD,135-103_192-35.png,197-103_192-50.png,15,35-50,180,1,159,2.8949163,0
161,135,197,103_192,DS,135-103_192-50.png,197-103_192-50.png,0,50-50,0,1,160,3.2190711,1
162,135,197,103_192,DD,135-103_192-65.png,197-103_192-5.png,60,65-5,180,1,161,3.462673,0
163,0,0,150_213,ISOD,150_213-35.png,150_213-65.png,30,35-65,0,1,162,2.6511397,0
164,126,126,217_33,SS,126-217_33-65.png,150-217_33-65.png,0,65-65,0,1,163,3.1412199,1
165,145,145,148_66,SS,145-148_66-95.png,52-148_66-95.png,0,95-95,180,1,164,1.829828,1
166,49,151,87_146,DS,49-87_146-50.png,151-87_146-50.png,0,50-50,0,1,165,3.3718596,0
167,0,0,65_13,ISOD,65_13-95.png,65_13-35.png,60,95-35,180,1,166,2.3999586,0
168,24,24,76_2,SD,24-76_2-35.png,24-76_2-95.png,60,35-95,0,1,167,3.0599785,0
169,0,0,225_128,ISOD,225_128-5.png,225_128-95.png,90,May-95,0,1,168,1.654094,1
170,0,0,93_8,ISOS,93_8-35.png,93_8-35.png,0,35-35,0,1,169,1.591643,1
171,0,0,96_30,ISOS,96_30-50.png,96_30-50.png,0,50-50,180,1,170,2.4216955,1
172,129,131,37_94,DS,129-37_94-20.png,131-37_94-20.png,0,20-20,180,1,171,2.0037525,1
173,213,222,58_142,DS,213-58_142-35.png,222-58_142-35.png,0,35-35,180,1,172,2.2538307,1
174,139,139,197_135,SD,139-197_135-5.png,139-197_135-95.png,90,May-95,0,1,173,1.8379472,1
175,41,65,208_20,DS,41-208_20-50.png,65-208_20-50.png,0,50-50,180,1,174,2.4179504,1
176,0,0,147_55,ISOS,147_55-50.png,147_55-50.png,0,50-50,180,1,175,1.6319915,1
177,13,13,225_128,SS,13-225_128-35.png,96-225_128-35.png,0,35-35,0,1,176,2.1581018,1
178,146,146,25_7,SS,146-25_7-35.png,147-25_7-35.png,0,35-35,0,1,177,3.5281641,1
179,9,148,52_145,DD,9-52_145-5.png,148-52_145-95.png,90,May-95,0,1,178,1.466261,1
180,26,26,90_17,SD,26-90_17-95.png,26-90_17-5.png,90,95-5,0,1,179,1.8003346,1
181,146,147,25_7,DS,146-25_7-95.png,147-25_7-95.png,0,95-95,180,1,180,1.6182384,1
182,0,0,123_44,ISOS,123_44-80.png,123_44-80.png,0,80-80,0,1,181,1.592264,1
183,123,123,100_125,SS,123-100_125-20.png,44-100_125-20.png,0,20-20,180,1,182,2.9564047,1
184,145,52,148_66,DS,145-148_66-50.png,52-148_66-50.png,0,50-50,0,1,183,2.704376,1
185,220,216,111_129,DD,220-111_129-35.png,216-111_129-65.png,30,35-65,0,1,184,2.3764544,0
186,0,0,222_139,ISOS,222_139-5.png,222_139-5.png,0,5-May,0,1,185,2.1845388,1
187,26,38,90_17,DS,26-90_17-5.png,38-90_17-5.png,0,5-May,0,1,186,1.8710253,1
188,145,52,148_66,DD,145-148_66-35.png,52-148_66-50.png,15,35-50,0,1,187,1.9970963,0
189,13,96,225_128,DD,13-225_128-5.png,96-225_128-95.png,90,May-95,0,1,188,1.5851634,1
190,33,33,150_213,SD,33-150_213-5.png,33-150_213-20.png,15,20-May,180,1,189,1.4712077,0
191,0,0,58_142,ISOD,58_142-35.png,58_142-50.png,15,35-50,180,1,190,2.043246,0
192,152,153,215_126,DD,152-215_126-5.png,153-215_126-20.png,15,20-May,180,1,191,1.9972672,0
193,0,0,151_49,ISOS,151_49-50.png,151_49-50.png,0,50-50,0,1,192,3.491231,1
194,53,53,151_49,SS,53-151_49-80.png,87-151_49-80.png,0,80-80,180,1,193,3.051301,1
195,126,150,217_33,DD,126-217_33-5.png,150-217_33-65.png,60,May-65,180,1,194,2.3894086,0
196,125,125,38_9,SS,125-38_9-95.png,17-38_9-95.png,0,95-95,0,1,195,3.3074417,1
197,146,146,25_7,SS,146-25_7-20.png,147-25_7-20.png,0,20-20,180,1,196,1.6255269,1
198,128,128,96_30,SD,128-96_30-80.png,128-96_30-95.png,15,80-95,180,1,197,3.5454912,0
199,220,216,111_129,DS,220-111_129-65.png,216-111_129-65.png,0,65-65,0,1,198,3.9996436,0
200,0,0,217_33,ISOS,217_33-95.png,217_33-95.png,0,95-95,180,1,199,1.8517193,1
201,139,139,197_135,SD,139-197_135-5.png,139-197_135-95.png,90,May-95,180,1,200,1.9458287,1
202,0,0,197_135,ISOS,197_135-20.png,197_135-20.png,0,20-20,0,1,201,3.6098545,1
203,0,0,147_55,ISOD,147_55-80.png,147_55-95.png,15,80-95,0,1,202,1.3884239,0
204,66,66,140_143,SD,66-140_143-35.png,66-140_143-50.png,15,35-50,0,1,203,1.2244194,0
205,53,87,151_49,DD,53-151_49-80.png,87-151_49-95.png,15,80-95,180,1,204,1.8645866,0
206,0,0,52_145,ISOS,52_145-20.png,52_145-20.png,0,20-20,180,1,205,1.6864729,1
207,0,0,216_220,ISOD,216_220-50.png,216_220-65.png,15,50-65,0,1,206,2.6645722,0
208,0,0,225_128,ISOD,225_128-80.png,225_128-95.png,15,80-95,180,1,207,3.1106462,0
209,0,0,148_66,ISOD,148_66-5.png,148_66-95.png,90,May-95,180,1,208,3.454249,0
210,49,151,87_146,DS,49-87_146-20.png,151-87_146-20.png,0,20-20,0,1,209,3.6322806,1
211,123,123,100_125,SD,123-100_125-35.png,123-100_125-65.png,30,35-65,180,1,210,2.5123978,0
212,123,44,100_125,DD,123-100_125-35.png,44-100_125-65.png,30,35-65,180,1,211,3.81247,0
213,0,0,153_152,ISOD,153_152-35.png,153_152-65.png,30,35-65,0,1,212,1.2006531,0
214,126,126,217_33,SS,126-217_33-20.png,150-217_33-20.png,0,20-20,180,1,213,2.9466543,1
215,100,90,123_44,DS,100-123_44-50.png,90-123_44-50.png,0,50-50,180,1,214,2.816737,1
216,139,103,197_135,DS,139-197_135-35.png,103-197_135-35.png,0,35-35,180,1,215,3.5368094,1
217,152,152,215_126,SS,152-215_126-50.png,153-215_126-50.png,0,50-50,0,1,216,1.9388016,0
218,7,7,147_55,SS,7-147_55-20.png,25-147_55-20.png,0,20-20,0,1,217,2.4510405,1
219,143,140,57_45,DD,143-57_45-65.png,140-57_45-5.png,60,65-5,180,1,218,2.8590107,1
220,213,213,58_142,SS,213-58_142-50.png,222-58_142-50.png,0,50-50,0,1,219,1.857095,1
221,0,0,197_135,ISOD,197_135-5.png,197_135-95.png,90,May-95,180,1,220,1.7451044,1
222,66,57,140_143,DD,66-140_143-5.png,57-140_143-95.png,90,May-95,180,1,221,3.3511498,1
223,77,215,153_152,DS,77-153_152-50.png,215-153_152-50.png,0,50-50,180,1,222,3.1357636,1
224,0,0,87_146,ISOD,87_146-5.png,87_146-95.png,90,May-95,180,1,223,2.0577903,0
225,143,143,57_45,SD,143-57_45-65.png,143-57_45-5.png,60,65-5,0,1,224,2.0498285,0
226,0,0,153_152,ISOS,153_152-95.png,153_152-95.png,0,95-95,0,1,225,2.5538445,1
227,220,220,111_129,SD,220-111_129-95.png,220-111_129-5.png,90,95-5,0,1,226,2.2078974,1
228,0,0,148_66,ISOS,148_66-80.png,148_66-80.png,0,80-80,180,1,227,1.3877602,1
229,129,129,37_94,SD,129-37_94-35.png,129-37_94-95.png,60,35-95,0,1,228,1.6235868,0
230,0,0,148_66,ISOS,148_66-5.png,148_66-5.png,0,5-May,180,1,229,1.1196746,1
231,128,128,96_30,SD,128-96_30-5.png,128-96_30-95.png,90,May-95,0,1,230,3.4116423,1
232,0,0,148_66,ISOD,148_66-5.png,148_66-95.png,90,May-95,0,1,231,3.3177552,0
233,0,0,65_13,ISOD,65_13-80.png,65_13-95.png,15,80-95,0,1,232,2.2658496,0
234,125,17,38_9,DS,125-38_9-80.png,17-38_9-80.png,0,80-80,180,1,233,2.245924,1
235,125,125,38_9,SD,125-38_9-5.png,125-38_9-65.png,60,May-65,0,1,234,1.8019264,1
236,0,0,90_17,ISOS,90_17-80.png,90_17-80.png,0,80-80,0,1,235,1.0840292,1
237,94,94,131_41,SS,94-131_41-80.png,37-131_41-80.png,0,80-80,0,1,236,1.6639894,1
238,0,0,87_146,ISOS,87_146-65.png,87_146-65.png,0,65-65,180,1,237,2.5820434,1
239,0,0,96_30,ISOS,96_30-95.png,96_30-95.png,0,95-95,180,1,238,1.7901117,1
240,33,33,150_213,SD,33-150_213-35.png,33-150_213-65.png,30,35-65,180,1,239,2.5041938,0
241,0,0,222_139,ISOS,222_139-50.png,222_139-50.png,0,50-50,180,1,240,3.78645,1
242,129,129,37_94,SD,129-37_94-35.png,129-37_94-65.png,30,35-65,180,1,241,3.5790377,0
243,152,152,215_126,SD,152-215_126-5.png,152-215_126-65.png,60,May-65,0,1,242,3.3310928,1
244,77,215,153_152,DS,77-153_152-20.png,215-153_152-20.png,0,20-20,180,1,243,3.5591905,1
245,192,111,216_220,DD,192-216_220-50.png,111-216_220-65.png,15,50-65,180,1,244,3.0513132,0
246,0,0,225_128,ISOS,225_128-20.png,225_128-20.png,0,20-20,0,1,245,3.022895,1
247,45,76,160_24,DD,45-160_24-50.png,76-160_24-65.png,15,50-65,0,1,246,3.4049313,0
248,129,129,37_94,SD,129-37_94-50.png,129-37_94-65.png,15,50-65,180,1,247,4.1670732,0
249,9,9,52_145,SS,9-52_145-50.png,148-52_145-50.png,0,50-50,0,1,248,3.4651701,1
250,41,41,208_20,SD,41-208_20-80.png,41-208_20-95.png,15,80-95,0,1,249,3.1932652,0
251,7,7,147_55,SS,7-147_55-20.png,25-147_55-20.png,0,20-20,180,1,250,1.9513775,1
252,129,131,37_94,DD,129-37_94-35.png,131-37_94-95.png,60,35-95,180,1,251,1.7413698,1
253,143,143,57_45,SD,143-57_45-5.png,143-57_45-95.png,90,May-95,0,1,252,1.5793607,1
254,0,0,197_135,ISOD,197_135-35.png,197_135-50.png,15,35-50,180,1,253,3.6654158,1
255,192,192,216_220,SD,192-216_220-95.png,192-216_220-5.png,90,95-5,180,1,254,1.3515118,1
256,41,41,208_20,SS,41-208_20-20.png,65-208_20-20.png,0,20-20,180,1,255,1.4695992,1
257,66,57,140_143,DD,66-140_143-65.png,57-140_143-5.png,60,65-5,0,1,256,3.1636062,1
258,146,147,25_7,DD,146-25_7-95.png,147-25_7-35.png,60,95-35,0,1,257,2.3977273,1
259,139,103,197_135,DD,139-197_135-35.png,103-197_135-50.png,15,35-50,180,1,258,2.0958211,0
260,135,197,103_192,DS,135-103_192-65.png,197-103_192-65.png,0,65-65,180,1,259,1.2982969,1
261,24,160,76_2,DD,24-76_2-95.png,160-76_2-5.png,90,95-5,180,1,260,2.0803096,0
262,129,131,37_94,DS,129-37_94-65.png,131-37_94-65.png,0,65-65,180,1,261,1.5883453,1
263,0,0,58_142,ISOS,58_142-50.png,58_142-50.png,0,50-50,180,1,262,1.410262,1
264,145,52,148_66,DD,145-148_66-65.png,52-148_66-35.png,30,65-35,180,1,263,2.0983868,0
265,8,93,46_53,DS,8-46_53-80.png,93-46_53-80.png,0,80-80,0,1,264,3.5444922,0
266,0,0,46_53,ISOS,46_53-50.png,46_53-50.png,0,50-50,180,1,265,1.5121776,1
267,24,24,76_2,SS,24-76_2-5.png,160-76_2-5.png,0,5-May,0,1,266,1.598207,1
268,94,37,131_41,DS,94-131_41-50.png,37-131_41-50.png,0,50-50,0,1,267,1.3442228,0
269,53,53,151_49,SS,53-151_49-35.png,87-151_49-35.png,0,35-35,180,1,268,1.3202804,1
270,125,17,38_9,DS,125-38_9-50.png,17-38_9-50.png,0,50-50,180,1,269,1.9723971,1
271,24,24,76_2,SD,24-76_2-95.png,24-76_2-5.png,90,95-5,0,1,270,2.7503695,1
272,125,125,38_9,SD,125-38_9-95.png,125-38_9-5.png,90,95-5,0,1,271,3.3304532,1
273,0,0,131_41,ISOS,131_41-65.png,131_41-65.png,0,65-65,0,1,272,1.2465285,1
274,0,0,52_145,ISOD,52_145-5.png,52_145-95.png,90,May-95,180,1,273,1.9705633,1
275,0,0,38_9,ISOD,38_9-5.png,38_9-65.png,60,May-65,180,1,274,1.580482,1
276,0,0,87_146,ISOS,87_146-65.png,87_146-65.png,0,65-65,0,1,275,1.6826236,1
277,128,128,96_30,SD,128-96_30-5.png,128-96_30-95.png,90,May-95,180,1,276,2.3487258,1
278,0,0,131_41,ISOS,131_41-65.png,131_41-65.png,0,65-65,180,1,277,1.7466836,1
279,143,140,57_45,DS,143-57_45-20.png,140-57_45-20.png,0,20-20,180,1,278,1.3687689,1
280,192,111,216_220,DD,192-216_220-35.png,111-216_220-65.png,30,35-65,180,1,279,1.5848371,1
281,7,25,147_55,DS,7-147_55-20.png,25-147_55-20.png,0,20-20,180,1,280,1.1449194,1
282,146,146,25_7,SD,146-25_7-80.png,146-25_7-95.png,15,80-95,180,1,281,5.6869187,0
283,220,220,111_129,SS,220-111_129-50.png,216-111_129-50.png,0,50-50,0,1,282,2.7130785,1
284,220,216,111_129,DD,220-111_129-35.png,216-111_129-95.png,60,35-95,0,1,283,3.5436223,1
285,135,135,103_192,SD,135-103_192-65.png,135-103_192-5.png,60,65-5,180,1,284,3.629638,0
286,0,0,52_145,ISOS,52_145-5.png,52_145-5.png,0,5-May,180,1,285,2.1018696,1
287,0,0,65_13,ISOS,65_13-80.png,65_13-80.png,0,80-80,0,1,286,2.3557746,1
288,146,146,25_7,SS,146-25_7-80.png,147-25_7-80.png,0,80-80,180,1,287,1.4414399,1
289,77,77,153_152,SD,77-153_152-35.png,77-153_152-65.png,30,35-65,0,1,288,3.6816509,0
290,26,26,90_17,SS,26-90_17-50.png,38-90_17-50.png,0,50-50,0,1,289,3.3918018,1
291,0,0,25_7,ISOS,25_7-50.png,25_7-50.png,0,50-50,0,1,290,2.8638859,1
292,128,225,96_30,DD,128-96_30-80.png,225-96_30-95.png,15,80-95,0,1,291,2.5018947,0
293,220,216,111_129,DD,220-111_129-95.png,216-111_129-5.png,90,95-5,0,1,292,1.5079725,1
294,0,0,37_94,ISOD,37_94-35.png,37_94-95.png,60,35-95,180,1,293,3.5040083,0
295,13,13,225_128,SS,13-225_128-80.png,96-225_128-80.png,0,80-80,180,1,294,3.4000814,1
296,129,131,37_94,DS,129-37_94-20.png,131-37_94-20.png,0,20-20,0,1,295,3.6681972,1
297,53,53,151_49,SS,53-151_49-80.png,87-151_49-80.png,0,80-80,0,1,296,3.0422423,1
298,77,77,153_152,SS,77-153_152-65.png,215-153_152-65.png,0,65-65,180,1,297,3.16038,1
299,128,128,96_30,SS,128-96_30-50.png,225-96_30-50.png,0,50-50,180,1,298,2.3669286,1
300,100,100,123_44,SD,100-123_44-5.png,100-123_44-65.png,60,May-65,180,1,299,1.5289323,1
301,41,65,208_20,DD,41-208_20-65.png,65-208_20-35.png,30,65-35,180,1,300,3.176997,0
302,13,96,225_128,DS,13-225_128-50.png,96-225_128-50.png,0,50-50,180,1,301,2.0730488,1
303,7,25,147_55,DD,7-147_55-80.png,25-147_55-95.png,15,80-95,180,1,302,3.7590559,0
304,0,0,100_125,ISOS,100_125-80.png,100_125-80.png,0,80-80,0,1,303,2.7008243,1
305,128,225,96_30,DD,128-96_30-95.png,225-96_30-35.png,60,95-35,180,1,304,3.4608817,0
306,66,66,140_143,SD,66-140_143-65.png,66-140_143-5.png,60,65-5,180,1,305,3.0868566,0
307,7,25,147_55,DD,7-147_55-5.png,25-147_55-95.png,90,May-95,180,1,306,1.4329778,1
308,0,0,96_30,ISOS,96_30-95.png,96_30-95.png,0,95-95,0,1,307,3.5030851,1
309,0,0,96_30,ISOD,96_30-80.png,96_30-95.png,15,80-95,0,1,308,2.5851676,0
310,125,17,38_9,DS,125-38_9-20.png,17-38_9-20.png,0,20-20,180,1,309,2.4652717,1
311,24,160,76_2,DS,24-76_2-20.png,160-76_2-20.png,0,20-20,180,1,310,2.5452304,1
312,8,93,46_53,DS,8-46_53-20.png,93-46_53-20.png,0,20-20,0,1,311,2.8653412,1
313,0,0,148_66,ISOD,148_66-65.png,148_66-5.png,60,65-5,0,1,312,1.9834099,1
314,143,140,57_45,DS,143-57_45-50.png,140-57_45-50.png,0,50-50,0,1,313,3.1994498,1
315,0,0,111_129,ISOS,111_129-35.png,111_129-35.png,0,35-35,0,1,314,1.9735557,1
316,0,0,57_45,ISOS,57_45-50.png,57_45-50.png,0,50-50,0,1,315,2.1575327,1
317,0,0,103_192,ISOD,103_192-5.png,103_192-95.png,90,May-95,180,1,316,1.7616549,1
318,13,96,225_128,DD,13-225_128-80.png,96-225_128-95.png,15,80-95,180,1,317,3.659659,1
319,0,0,25_7,ISOD,25_7-5.png,25_7-95.png,90,May-95,0,1,318,1.5802453,1
320,0,0,151_49,ISOD,151_49-65.png,151_49-35.png,30,65-35,180,1,319,3.3882957,0
321,26,26,90_17,SS,26-90_17-50.png,38-90_17-50.png,0,50-50,180,1,320,1.9863527,1
322,213,213,58_142,SS,213-58_142-95.png,222-58_142-95.png,0,95-95,180,1,321,2.2025945,1
323,0,0,87_146,ISOS,87_146-80.png,87_146-80.png,0,80-80,0,1,322,1.6764687,1
324,143,143,57_45,SS,143-57_45-80.png,140-57_45-80.png,0,80-80,180,1,323,2.224523,1
325,192,111,216_220,DD,192-216_220-95.png,111-216_220-5.png,90,95-5,0,1,324,1.3601837,1
326,129,129,37_94,SS,129-37_94-20.png,131-37_94-20.png,0,20-20,0,1,325,1.3641725,1
327,53,87,151_49,DD,53-151_49-5.png,87-151_49-95.png,90,May-95,0,1,326,1.8622206,1
328,0,0,222_139,ISOD,222_139-65.png,222_139-5.png,60,65-5,180,1,327,2.0062158,1
329,0,0,147_55,ISOS,147_55-95.png,147_55-95.png,0,95-95,180,1,328,1.7922934,1
330,0,0,131_41,ISOD,131_41-35.png,131_41-95.png,60,35-95,0,1,329,1.4043797,1
331,0,0,38_9,ISOS,38_9-50.png,38_9-50.png,0,50-50,180,1,330,1.8303535,1
332,220,220,111_129,SD,220-111_129-35.png,220-111_129-95.png,60,35-95,0,1,331,3.612434,0
333,9,9,52_145,SD,9-52_145-65.png,9-52_145-5.png,60,65-5,0,1,332,1.6565447,1
334,13,96,225_128,DS,13-225_128-80.png,96-225_128-80.png,0,80-80,180,1,333,2.3045983,1
335,0,0,150_213,ISOD,150_213-5.png,150_213-20.png,15,20-May,180,1,334,1.1046655,0
336,192,111,216_220,DD,192-216_220-95.png,111-216_220-5.png,90,95-5,180,1,335,1.5687315,1
337,33,217,150_213,DS,33-150_213-50.png,217-150_213-50.png,0,50-50,0,1,336,3.3049634,1
338,0,0,37_94,ISOD,37_94-35.png,37_94-95.png,60,35-95,0,1,337,3.4009054,0
339,41,41,208_20,SD,41-208_20-95.png,41-208_20-35.png,60,95-35,0,1,338,1.8529978,1
340,192,192,216_220,SS,192-216_220-80.png,111-216_220-80.png,0,80-80,0,1,339,2.4695878,1
341,145,145,148_66,SD,145-148_66-5.png,145-148_66-95.png,90,May-95,0,1,340,3.4195507,1
342,8,8,46_53,SS,8-46_53-80.png,93-46_53-80.png,0,80-80,180,1,341,2.179709,1
343,0,0,25_7,ISOS,25_7-65.png,25_7-65.png,0,65-65,180,1,342,2.3638308,1
344,0,0,65_13,ISOS,65_13-65.png,65_13-65.png,0,65-65,0,1,343,2.1977649,1
345,143,143,57_45,SS,143-57_45-5.png,140-57_45-5.png,0,5-May,180,1,344,1.7214496,1
346,142,58,222_139,DD,142-222_139-65.png,58-222_139-35.png,30,65-35,180,1,345,2.221478,0
347,213,222,58_142,DS,213-58_142-80.png,222-58_142-80.png,0,80-80,0,1,346,2.5095415,1
348,9,148,52_145,DS,9-52_145-20.png,148-52_145-20.png,0,20-20,180,1,347,1.8975163,1
349,2,46,93_8,DD,2-93_8-50.png,46-93_8-65.png,15,50-65,0,1,348,3.433685,0
350,0,0,215_126,ISOS,215_126-20.png,215_126-20.png,0,20-20,0,1,349,2.177795,1
351,0,0,217_33,ISOS,217_33-80.png,217_33-80.png,0,80-80,0,1,350,1.8977431,1
352,0,0,111_129,ISOD,111_129-35.png,111_129-95.png,60,35-95,0,1,351,3.331829,0
353,0,0,25_7,ISOS,25_7-65.png,25_7-65.png,0,65-65,0,1,352,2.3999445,1
354,33,33,150_213,SS,33-150_213-20.png,217-150_213-20.png,0,20-20,180,1,353,3.731967,1
355,0,0,225_128,ISOD,225_128-95.png,225_128-35.png,60,95-35,0,1,354,1.8721191,1
356,0,0,140_143,ISOS,140_143-5.png,140_143-5.png,0,5-May,0,1,355,1.5481215,1
357,41,65,208_20,DS,41-208_20-80.png,65-208_20-80.png,0,80-80,180,1,356,3.6961973,1
358,143,143,57_45,SD,143-57_45-65.png,143-57_45-5.png,60,65-5,180,1,357,1.8422368,1
359,49,49,87_146,SD,49-87_146-80.png,49-87_146-95.png,15,80-95,180,1,358,1.1143091,0
360,0,0,153_152,ISOS,153_152-95.png,153_152-95.png,0,95-95,180,1,359,3.7103329,1
361,9,148,52_145,DD,9-52_145-5.png,148-52_145-95.png,90,May-95,180,1,360,1.5569072,1
362,145,52,148_66,DD,145-148_66-65.png,52-148_66-35.png,30,65-35,0,1,361,4.1689134,1
363,0,0,38_9,ISOD,38_9-5.png,38_9-20.png,15,20-May,0,1,362,1.4350606,0
364,24,160,76_2,DS,24-76_2-80.png,160-76_2-80.png,0,80-80,0,1,363,2.849077,1
365,142,58,222_139,DD,142-222_139-5.png,58-222_139-95.png,90,May-95,180,1,364,1.4510537,1
366,145,145,148_66,SD,145-148_66-35.png,145-148_66-50.png,15,35-50,0,1,365,2.1466951,1
367,0,0,225_128,ISOS,225_128-65.png,225_128-65.png,0,65-65,180,1,366,2.4027436,1
368,66,66,140_143,SS,66-140_143-80.png,57-140_143-80.png,0,80-80,180,1,367,1.7248678,1
369,0,0,76_2,ISOD,76_2-95.png,76_2-5.png,90,95-5,0,1,368,1.5989006,1
370,0,0,38_9,ISOS,38_9-20.png,38_9-20.png,0,20-20,0,1,369,0.9449258,1
371,66,57,140_143,DS,66-140_143-35.png,57-140_143-35.png,0,35-35,180,1,370,1.3749545,1
372,0,0,58_142,ISOS,58_142-50.png,58_142-50.png,0,50-50,0,1,371,1.614999,1
373,45,45,160_24,SD,45-160_24-50.png,45-160_24-65.png,15,50-65,0,1,372,1.6229129,0
374,145,145,148_66,SD,145-148_66-65.png,145-148_66-35.png,30,65-35,0,1,373,2.1750963,0
375,145,145,148_66,SD,145-148_66-65.png,145-148_66-35.png,30,65-35,180,1,374,2.105107,0
376,0,0,131_41,ISOS,131_41-80.png,131_41-80.png,0,80-80,180,1,375,1.6071512,1
377,9,9,52_145,SD,9-52_145-65.png,9-52_145-5.png,60,65-5,180,1,376,1.9132593,1
378,0,0,57_45,ISOS,57_45-35.png,57_45-35.png,0,35-35,0,1,377,1.7273319,1
379,77,215,153_152,DD,77-153_152-5.png,215-153_152-65.png,60,May-65,180,1,378,3.4752734,0
380,41,65,208_20,DD,41-208_20-80.png,65-208_20-95.png,15,80-95,0,1,379,3.5114381,0
381,0,0,38_9,ISOD,38_9-95.png,38_9-5.png,90,95-5,0,1,380,3.0875273,1
382,94,37,131_41,DD,94-131_41-35.png,37-131_41-65.png,30,35-65,0,1,381,1.6416564,0
383,0,0,38_9,ISOD,38_9-35.png,38_9-65.png,30,35-65,180,1,382,2.4856768,0
384,0,0,46_53,ISOS,46_53-20.png,46_53-20.png,0,20-20,0,1,383,3.4241233,1
385,33,217,150_213,DS,33-150_213-20.png,217-150_213-20.png,0,20-20,180,1,384,3.2243526,1
386,192,111,216_220,DD,192-216_220-35.png,111-216_220-95.png,60,35-95,0,1,385,2.4164422,0
387,143,140,57_45,DD,143-57_45-65.png,140-57_45-35.png,30,65-35,0,1,386,3.3420892,0
388,220,220,111_129,SD,220-111_129-50.png,220-111_129-65.png,15,50-65,180,1,387,2.6321466,0
389,7,25,147_55,DS,7-147_55-80.png,25-147_55-80.png,0,80-80,0,1,388,2.956246,1
390,135,197,103_192,DD,135-103_192-65.png,197-103_192-35.png,30,65-35,180,1,389,1.8902292,0
391,100,100,123_44,SS,100-123_44-65.png,90-123_44-65.png,0,65-65,0,1,390,3.0663822,1
392,0,0,215_126,ISOS,215_126-20.png,215_126-20.png,0,20-20,180,1,391,1.8744375,1
393,0,0,216_220,ISOS,216_220-80.png,216_220-80.png,0,80-80,180,1,392,1.8164461,1
394,41,65,208_20,DD,41-208_20-5.png,65-208_20-95.png,90,May-95,0,1,393,2.5204318,1
395,125,125,38_9,SS,125-38_9-50.png,17-38_9-50.png,0,50-50,180,1,394,1.6607002,1
396,8,93,46_53,DD,8-46_53-50.png,93-46_53-65.png,15,50-65,180,1,395,2.2586691,0
397,45,45,160_24,SS,45-160_24-50.png,76-160_24-50.png,0,50-50,180,1,396,2.2167027,1
398,2,46,93_8,DS,2-93_8-65.png,46-93_8-65.png,0,65-65,0,1,397,2.6487417,1
399,0,0,131_41,ISOS,131_41-20.png,131_41-20.png,0,20-20,180,1,398,1.6427302,1
400,49,151,87_146,DD,49-87_146-5.png,151-87_146-95.png,90,May-95,180,1,399,1.8529292,1
401,45,45,160_24,SS,45-160_24-80.png,76-160_24-80.png,0,80-80,0,1,400,2.6369424,1
402,145,145,148_66,SD,145-148_66-65.png,145-148_66-5.png,60,65-5,0,1,401,2.2834232,1
403,125,125,38_9,SD,125-38_9-35.png,125-38_9-65.png,30,35-65,0,1,402,1.5655051,0
404,100,90,123_44,DD,100-123_44-5.png,90-123_44-65.png,60,May-65,180,1,403,2.2795389,1
405,13,13,225_128,SS,13-225_128-20.png,96-225_128-20.png,0,20-20,0,1,404,1.267555,1
406,213,222,58_142,DS,213-58_142-20.png,222-58_142-20.png,0,20-20,180,1,405,2.7796361,1
407,0,0,148_66,ISOS,148_66-80.png,148_66-80.png,0,80-80,0,1,406,2.1856859,0
408,125,17,38_9,DD,125-38_9-95.png,17-38_9-5.png,90,95-5,0,1,407,4.8572955,0
409,33,33,150_213,SD,33-150_213-95.png,33-150_213-5.png,90,95-5,180,1,408,1.561465,1
410,143,143,57_45,SS,143-57_45-20.png,140-57_45-20.png,0,20-20,0,1,409,1.8834263,1
411,145,145,148_66,SS,145-148_66-50.png,52-148_66-50.png,0,50-50,180,1,410,1.4615127,1
412,0,0,52_145,ISOS,52_145-20.png,52_145-20.png,0,20-20,0,1,411,1.7255814,1
413,100,90,123_44,DS,100-123_44-20.png,90-123_44-20.png,0,20-20,0,1,412,2.8415148,1
414,146,147,25_7,DD,146-25_7-80.png,147-25_7-95.png,15,80-95,180,1,413,1.3736649,1
415,20,20,65_13,SD,20-65_13-95.png,20-65_13-35.png,60,95-35,0,1,414,3.157756,1
416,0,0,87_146,ISOS,87_146-20.png,87_146-20.png,0,20-20,0,1,415,2.5317712,1
417,125,17,38_9,DS,125-38_9-35.png,17-38_9-35.png,0,35-35,0,1,416,2.8297892,1
418,128,225,96_30,DS,128-96_30-80.png,225-96_30-80.png,0,80-80,180,1,417,1.9538245,1
419,20,20,65_13,SD,20-65_13-80.png,20-65_13-95.png,15,80-95,180,1,418,1.7579927,0
420,0,0,217_33,ISOD,217_33-35.png,217_33-65.png,30,35-65,0,1,419,2.160032,0
421,192,192,216_220,SD,192-216_220-50.png,192-216_220-65.png,15,50-65,180,1,420,1.8361067,0
422,139,103,197_135,DD,139-197_135-5.png,103-197_135-95.png,90,May-95,180,1,421,3.1421168,1
423,220,216,111_129,DD,220-111_129-50.png,216-111_129-65.png,15,50-65,180,1,422,1.4782664,0
424,125,125,38_9,SS,125-38_9-80.png,17-38_9-80.png,0,80-80,180,1,423,1.9947244,1
425,0,0,160_24,ISOS,160_24-80.png,160_24-80.png,0,80-80,180,1,424,2.0387695,1
426,139,103,197_135,DS,139-197_135-35.png,103-197_135-35.png,0,35-35,0,1,425,1.4748262,0
427,139,139,197_135,SD,139-197_135-65.png,139-197_135-35.png,30,65-35,180,1,426,1.8388754,0
428,0,0,58_142,ISOD,58_142-5.png,58_142-95.png,90,May-95,180,1,427,1.4909205,1
429,128,225,96_30,DD,128-96_30-65.png,225-96_30-35.png,30,65-35,0,1,428,2.6690044,1
430,192,111,216_220,DS,192-216_220-65.png,111-216_220-65.png,0,65-65,0,1,429,1.912518,1
431,8,93,46_53,DD,8-46_53-35.png,93-46_53-95.png,60,35-95,180,1,430,3.6605992,0
432,128,128,96_30,SD,128-96_30-65.png,128-96_30-35.png,30,65-35,0,1,431,1.6187592,0
433,53,87,151_49,DS,53-151_49-20.png,87-151_49-20.png,0,20-20,0,1,432,6.0767827,1
434,220,220,111_129,SD,220-111_129-50.png,220-111_129-65.png,15,50-65,0,1,433,2.92099,0
435,0,0,100_125,ISOS,100_125-20.png,100_125-20.png,0,20-20,180,1,434,3.8910315,1
436,0,0,90_17,ISOD,90_17-35.png,90_17-65.png,30,35-65,0,1,435,3.1251779,0
437,0,0,215_126,ISOS,215_126-95.png,215_126-95.png,0,95-95,0,1,436,2.3232603,1
438,142,142,222_139,SS,142-222_139-50.png,58-222_139-50.png,0,50-50,0,1,437,2.5912778,1
439,94,94,131_41,SD,94-131_41-35.png,94-131_41-65.png,30,35-65,0,1,438,3.2066956,0
440,143,140,57_45,DD,143-57_45-35.png,140-57_45-50.png,15,35-50,0,1,439,2.25344,0
441,0,0,216_220,ISOS,216_220-50.png,216_220-50.png,0,50-50,180,1,440,2.3895416,1
442,0,0,103_192,ISOD,103_192-65.png,103_192-5.png,60,65-5,0,1,441,3.0499744,1
443,33,217,150_213,DD,33-150_213-5.png,217-150_213-20.png,15,20-May,0,1,442,2.3881264,0
444,0,0,52_145,ISOD,52_145-65.png,52_145-5.png,60,65-5,180,1,443,3.3442035,0
445,49,151,87_146,DD,49-87_146-95.png,151-87_146-35.png,60,95-35,180,1,444,3.5119312,0
446,0,0,208_20,ISOS,208_20-50.png,208_20-50.png,0,50-50,0,1,445,2.8159184,0
447,49,49,87_146,SD,49-87_146-65.png,49-87_146-35.png,30,65-35,180,1,446,1.8740021,0
448,53,87,151_49,DD,53-151_49-65.png,87-151_49-35.png,30,65-35,0,1,447,3.638031,1
449,100,90,123_44,DS,100-123_44-50.png,90-123_44-50.png,0,50-50,0,1,448,3.3401384,1
450,49,49,87_146,SS,49-87_146-35.png,151-87_146-35.png,0,35-35,0,1,449,3.1642158,1
451,7,7,147_55,SD,7-147_55-95.png,7-147_55-35.png,60,95-35,0,1,450,3.528277,0
452,0,0,52_145,ISOS,52_145-80.png,52_145-80.png,0,80-80,180,1,451,1.8364187,1
453,7,7,147_55,SD,7-147_55-65.png,7-147_55-35.png,30,65-35,0,1,452,1.8324602,0
454,220,220,111_129,SD,220-111_129-95.png,220-111_129-5.png,90,95-5,180,1,453,1.8204633,1
455,0,0,123_44,ISOS,123_44-50.png,123_44-50.png,0,50-50,180,1,454,3.8825347,1
456,41,41,208_20,SD,41-208_20-95.png,41-208_20-35.png,60,95-35,180,1,455,3.6406348,0
457,126,126,217_33,SS,126-217_33-20.png,150-217_33-20.png,0,20-20,0,1,456,1.6067166,0
458,0,0,140_143,ISOD,140_143-65.png,140_143-35.png,30,65-35,0,1,457,3.4007907,0
459,77,215,153_152,DD,77-153_152-35.png,215-153_152-65.png,30,35-65,0,1,458,3.5568938,0
460,0,0,46_53,ISOS,46_53-80.png,46_53-80.png,0,80-80,0,1,459,2.6454093,1
461,0,0,123_44,ISOS,123_44-95.png,123_44-95.png,0,95-95,180,1,460,2.3515046,1
462,0,0,90_17,ISOS,90_17-95.png,90_17-95.png,0,95-95,0,1,461,1.8775597,1
463,126,126,217_33,SD,126-217_33-5.png,126-217_33-65.png,60,May-65,0,1,462,2.2976818,0
464,33,217,150_213,DD,33-150_213-5.png,217-150_213-65.png,60,May-65,180,1,463,4.0757794,0
465,0,0,93_8,ISOS,93_8-35.png,93_8-35.png,0,35-35,0,1,464,1.6760409,1
466,152,153,215_126,DD,152-215_126-5.png,153-215_126-20.png,15,20-May,0,1,465,2.3274407,0
467,143,143,57_45,SS,143-57_45-50.png,140-57_45-50.png,0,50-50,0,1,466,2.331391,1
468,128,128,96_30,SD,128-96_30-80.png,128-96_30-95.png,15,80-95,0,1,467,2.2914305,0
469,0,0,103_192,ISOS,103_192-80.png,103_192-80.png,0,80-80,0,1,468,1.8696486,1
470,0,0,140_143,ISOD,140_143-5.png,140_143-95.png,90,May-95,0,1,469,3.113551,1
471,2,2,93_8,SD,2-93_8-35.png,2-93_8-95.png,60,35-95,180,1,470,1.4636695,1
472,135,197,103_192,DS,135-103_192-20.png,197-103_192-20.png,0,20-20,0,1,471,3.1256857,1
473,125,125,38_9,SS,125-38_9-20.png,17-38_9-20.png,0,20-20,0,1,472,1.5277623,1
474,0,0,87_146,ISOS,87_146-20.png,87_146-20.png,0,20-20,180,1,473,2.7137873,1
475,220,216,111_129,DS,220-111_129-65.png,216-111_129-65.png,0,65-65,180,1,474,2.8318863,1
476,142,142,222_139,SS,142-222_139-20.png,58-222_139-20.png,0,20-20,180,1,475,2.0921495,1
477,213,222,58_142,DS,213-58_142-35.png,222-58_142-35.png,0,35-35,0,1,476,2.203977,1
478,0,0,96_30,ISOD,96_30-95.png,96_30-35.png,60,95-35,0,1,477,3.0240195,0
479,139,103,197_135,DD,139-197_135-65.png,103-197_135-5.png,60,65-5,180,1,478,1.8641133,1
480,129,129,37_94,SS,129-37_94-80.png,131-37_94-80.png,0,80-80,180,1,479,1.1982226,1
481,135,135,103_192,SS,135-103_192-50.png,197-103_192-50.png,0,50-50,180,1,480,4.2108116,1
482,0,0,150_213,ISOD,150_213-35.png,150_213-65.png,30,35-65,180,1,481,3.5969872,0
483,126,126,217_33,SS,126-217_33-65.png,150-217_33-65.png,0,65-65,180,1,482,2.3026376,1
484,0,0,100_125,ISOD,100_125-95.png,100_125-5.png,90,95-5,0,1,483,0.5026788,1
485,0,0,216_220,ISOS,216_220-20.png,216_220-20.png,0,20-20,180,1,484,2.036678,1
486,49,49,87_146,SD,49-87_146-65.png,49-87_146-35.png,30,65-35,0,1,485,0.5847538,0
487,9,148,52_145,DS,9-52_145-35.png,148-52_145-35.png,0,35-35,0,1,486,2.1987793,1
488,0,0,160_24,ISOS,160_24-50.png,160_24-50.png,0,50-50,0,1,487,1.6968691,1
489,33,217,150_213,DD,33-150_213-95.png,217-150_213-5.png,90,95-5,180,1,488,1.3528994,1
490,0,0,153_152,ISOD,153_152-5.png,153_152-20.png,15,20-May,180,1,489,1.1329267,0
491,0,0,150_213,ISOD,150_213-5.png,150_213-20.png,15,20-May,0,1,490,1.6389464,0
492,100,90,123_44,DD,100-123_44-95.png,90-123_44-5.png,90,95-5,180,1,491,1.8169255,1
493,0,0,148_66,ISOD,148_66-65.png,148_66-35.png,30,65-35,0,1,492,2.315089,0
494,53,87,151_49,DD,53-151_49-80.png,87-151_49-95.png,15,80-95,0,1,493,1.5371294,0
495,220,216,111_129,DS,220-111_129-50.png,216-111_129-50.png,0,50-50,180,1,494,1.4110366,1
496,26,26,90_17,SS,26-90_17-65.png,38-90_17-65.png,0,65-65,0,1,495,1.3490864,1
497,0,0,140_143,ISOS,140_143-5.png,140_143-5.png,0,5-May,180,1,496,1.8352247,1
498,0,0,37_94,ISOD,37_94-50.png,37_94-65.png,15,50-65,0,1,497,1.9052912,0
499,129,129,37_94,SS,129-37_94-20.png,131-37_94-20.png,0,20-20,180,1,498,1.567256,1
500,7,7,147_55,SS,7-147_55-65.png,25-147_55-65.png,0,65-65,180,1,499,1.2993723,1
501,143,143,57_45,SD,143-57_45-5.png,143-57_45-95.png,90,May-95,180,1,500,1.1953261,0
502,0,0,217_33,ISOS,217_33-95.png,217_33-95.png,0,95-95,180,1,501,1.3534096,1
503,0,0,25_7,ISOS,25_7-50.png,25_7-50.png,0,50-50,180,1,502,1.735532,1
504,220,216,111_129,DS,220-111_129-80.png,216-111_129-80.png,0,80-80,180,1,503,3.1995564,1
505,53,53,151_49,SS,53-151_49-20.png,87-151_49-20.png,0,20-20,180,1,504,1.2940173,1
506,142,58,222_139,DD,142-222_139-35.png,58-222_139-50.png,15,35-50,180,1,505,1.2560852,0
507,0,0,90_17,ISOD,90_17-95.png,90_17-5.png,90,95-5,180,1,506,1.1281201,1
508,0,0,123_44,ISOD,123_44-95.png,123_44-5.png,90,95-5,0,1,507,2.226162,1
509,33,33,150_213,SS,33-150_213-95.png,217-150_213-95.png,0,95-95,180,1,508,1.1541873,1
510,0,0,57_45,ISOS,57_45-20.png,57_45-20.png,0,20-20,0,1,509,1.5745213,1
511,100,90,123_44,DS,100-123_44-5.png,90-123_44-5.png,0,5-May,180,1,510,1.8963727,1
512,125,125,38_9,SS,125-38_9-80.png,17-38_9-80.png,0,80-80,0,1,511,1.5382556,1
513,0,0,222_139,ISOD,222_139-65.png,222_139-35.png,30,65-35,0,1,0,2.7638628,0
514,123,123,100_125,SD,123-100_125-95.png,123-100_125-5.png,90,95-5,0,1,1,2.3360193,1
515,139,103,197_135,DS,139-197_135-35.png,103-197_135-35.png,0,35-35,0,1,2,2.846057,1
516,66,57,140_143,DS,66-140_143-35.png,57-140_143-35.png,0,35-35,0,1,3,2.0921314,1
517,94,37,131_41,DS,94-131_41-95.png,37-131_41-95.png,0,95-95,0,1,4,3.3262994,1
518,146,146,25_7,SD,146-25_7-5.png,146-25_7-95.png,90,May-95,180,1,5,2.082395,1
519,0,0,37_94,ISOD,37_94-95.png,37_94-5.png,90,95-5,0,1,6,2.9444332,1
520,0,0,215_126,ISOD,215_126-35.png,215_126-65.png,30,35-65,180,1,7,2.350578,0
521,0,0,93_8,ISOS,93_8-35.png,93_8-35.png,0,35-35,180,1,8,3.0750897,1
522,152,152,215_126,SD,152-215_126-5.png,152-215_126-20.png,15,20-May,0,1,9,2.925139,0
523,9,9,52_145,SS,9-52_145-50.png,148-52_145-50.png,0,50-50,180,1,10,1.6093501,1
524,192,192,216_220,SD,192-216_220-35.png,192-216_220-65.png,30,35-65,180,1,11,2.1129086,1
525,129,129,37_94,SD,129-37_94-95.png,129-37_94-5.png,90,95-5,0,1,12,2.63299,1
526,123,123,100_125,SD,123-100_125-35.png,123-100_125-65.png,30,35-65,0,1,13,1.7890979,0
527,192,111,216_220,DS,192-216_220-65.png,111-216_220-65.png,0,65-65,180,1,14,1.6431643,1
528,49,151,87_146,DD,49-87_146-95.png,151-87_146-35.png,60,95-35,0,1,15,4.3132205,0
529,142,58,222_139,DD,142-222_139-65.png,58-222_139-35.png,30,65-35,0,1,16,3.2653387,0
530,20,20,65_13,SS,20-65_13-80.png,208-65_13-80.png,0,80-80,180,1,17,1.5054775,1
531,9,9,52_145,SD,9-52_145-5.png,9-52_145-95.png,90,May-95,0,1,18,1.5215088,1
532,49,151,87_146,DD,49-87_146-80.png,151-87_146-95.png,15,80-95,0,1,19,2.4756029,0
533,220,216,111_129,DS,220-111_129-50.png,216-111_129-50.png,0,50-50,0,1,20,1.65764,1
534,145,52,148_66,DS,145-148_66-35.png,52-148_66-35.png,0,35-35,180,1,21,1.942313,1
535,139,139,197_135,SS,139-197_135-95.png,103-197_135-95.png,0,95-95,0,1,22,2.2278807,1
536,143,143,57_45,SD,143-57_45-65.png,143-57_45-35.png,30,65-35,0,1,23,2.3823395,0
537,0,0,147_55,ISOS,147_55-80.png,147_55-80.png,0,80-80,180,1,24,1.6224998,1
538,33,217,150_213,DS,33-150_213-80.png,217-150_213-80.png,0,80-80,0,1,25,2.5105767,1
539,146,146,25_7,SS,146-25_7-35.png,147-25_7-35.png,0,35-35,180,1,26,2.1346405,1
540,2,46,93_8,DD,2-93_8-95.png,46-93_8-5.png,90,95-5,0,1,27,1.3702896,1
541,192,192,216_220,SS,192-216_220-50.png,111-216_220-50.png,0,50-50,0,1,28,1.6602498,1
542,123,44,100_125,DS,123-100_125-20.png,44-100_125-20.png,0,20-20,180,1,29,3.1104352,1
543,135,135,103_192,SS,135-103_192-80.png,197-103_192-80.png,0,80-80,180,1,30,2.0984423,1
544,0,0,216_220,ISOD,216_220-95.png,216_220-5.png,90,95-5,0,1,31,1.1844811,1
545,213,222,58_142,DD,213-58_142-65.png,222-58_142-35.png,30,65-35,0,1,32,2.8486533,0
546,0,0,103_192,ISOD,103_192-35.png,103_192-50.png,15,35-50,180,1,33,1.3407501,0
547,77,215,153_152,DD,77-153_152-35.png,215-153_152-65.png,30,35-65,180,1,34,3.1308017,0
548,53,53,151_49,SD,53-151_49-5.png,53-151_49-95.png,90,May-95,180,1,35,1.8529195,1
549,0,0,197_135,ISOD,197_135-5.png,197_135-95.png,90,May-95,0,1,36,2.9169776,1
550,0,0,76_2,ISOS,76_2-80.png,76_2-80.png,0,80-80,0,1,37,1.3970811,1
551,94,37,131_41,DS,94-131_41-80.png,37-131_41-80.png,0,80-80,0,1,38,2.325137,1
552,33,33,150_213,SS,33-150_213-80.png,217-150_213-80.png,0,80-80,180,1,39,2.9216616,1
553,135,135,103_192,SD,135-103_192-65.png,135-103_192-5.png,60,65-5,0,1,40,3.1677592,1
554,123,44,100_125,DS,123-100_125-20.png,44-100_125-20.png,0,20-20,0,1,41,3.441847,1
555,128,128,96_30,SS,128-96_30-65.png,225-96_30-65.png,0,65-65,0,1,42,2.675565,1
556,0,0,222_139,ISOD,222_139-65.png,222_139-5.png,60,65-5,0,1,43,2.0436144,1
557,213,222,58_142,DD,213-58_142-65.png,222-58_142-35.png,30,65-35,180,1,44,2.6516588,0
558,0,0,76_2,ISOD,76_2-95.png,76_2-5.png,90,95-5,180,1,45,2.8438668,1
559,192,111,216_220,DS,192-216_220-80.png,111-216_220-80.png,0,80-80,180,1,46,2.105908,1
560,145,52,148_66,DS,145-148_66-80.png,52-148_66-80.png,0,80-80,180,1,47,1.2899225,1
561,143,143,57_45,SS,143-57_45-50.png,140-57_45-50.png,0,50-50,180,1,48,4.9122405,1
562,45,45,160_24,SS,45-160_24-5.png,76-160_24-5.png,0,5-May,0,1,49,3.134244,1
563,8,8,46_53,SD,8-46_53-95.png,8-46_53-5.png,90,95-5,180,1,50,1.3044715,1
564,0,0,197_135,ISOS,197_135-5.png,197_135-5.png,0,5-May,180,1,51,2.3048992,1
565,0,0,140_143,ISOS,140_143-80.png,140_143-80.png,0,80-80,180,1,52,2.0070324,1
566,26,26,90_17,SD,26-90_17-95.png,26-90_17-5.png,90,95-5,180,1,53,1.3291126,1
567,0,0,57_45,ISOD,57_45-35.png,57_45-50.png,15,35-50,0,1,54,1.7931631,0
568,8,8,46_53,SD,8-46_53-95.png,8-46_53-5.png,90,95-5,0,1,55,1.6927248,1
569,0,0,65_13,ISOD,65_13-80.png,65_13-95.png,15,80-95,180,1,56,1.7528118,0
570,0,0,150_213,ISOD,150_213-95.png,150_213-5.png,90,95-5,180,1,57,1.4909481,1
571,139,139,197_135,SD,139-197_135-35.png,139-197_135-50.png,15,35-50,0,1,58,2.232961,0
572,0,0,131_41,ISOD,131_41-95.png,131_41-5.png,90,95-5,180,1,59,3.3330243,1
573,143,140,57_45,DS,143-57_45-65.png,140-57_45-65.png,0,65-65,0,1,60,3.3151495,1
574,45,45,160_24,SD,45-160_24-95.png,45-160_24-5.png,90,95-5,180,1,61,2.1393282,1
575,49,151,87_146,DS,49-87_146-95.png,151-87_146-95.png,0,95-95,0,1,62,2.6853447,1
576,0,0,90_17,ISOS,90_17-95.png,90_17-95.png,0,95-95,180,1,63,1.4934838,1
577,94,37,131_41,DS,94-131_41-20.png,37-131_41-20.png,0,20-20,180,1,64,1.5855751,1
578,125,17,38_9,DD,125-38_9-5.png,17-38_9-65.png,60,May-65,0,1,65,3.2796524,0
579,0,0,76_2,ISOS,76_2-35.png,76_2-35.png,0,35-35,180,1,66,1.3116932,1
580,0,0,217_33,ISOD,217_33-5.png,217_33-20.png,15,20-May,180,1,67,1.6222447,0
581,0,0,153_152,ISOD,153_152-95.png,153_152-5.png,90,95-5,180,1,68,2.380313,0
582,152,153,215_126,DS,152-215_126-20.png,153-215_126-20.png,0,20-20,0,1,69,1.9744247,1
583,0,0,153_152,ISOD,153_152-5.png,153_152-65.png,60,May-65,0,1,70,2.4724882,0
584,20,208,65_13,DS,20-65_13-20.png,208-65_13-20.png,0,20-20,180,1,71,1.3561441,1
585,146,147,25_7,DD,146-25_7-5.png,147-25_7-95.png,90,May-95,180,1,72,2.7941685,0
586,0,0,38_9,ISOS,38_9-5.png,38_9-5.png,0,5-May,0,1,73,1.5602967,1
587,41,41,208_20,SD,41-208_20-5.png,41-208_20-95.png,90,May-95,180,1,74,3.8183913,0
588,0,0,217_33,ISOS,217_33-95.png,217_33-95.png,0,95-95,0,1,75,1.6124777,1
589,20,208,65_13,DD,20-65_13-80.png,208-65_13-95.png,15,80-95,180,1,76,2.386612,0
590,7,25,147_55,DD,7-147_55-65.png,25-147_55-35.png,30,65-35,180,1,77,1.3405768,0
591,0,0,93_8,ISOS,93_8-20.png,93_8-20.png,0,20-20,0,1,78,1.5006824,1
592,135,135,103_192,SS,135-103_192-20.png,197-103_192-20.png,0,20-20,0,1,79,1.9527602,1
593,139,139,197_135,SS,139-197_135-50.png,103-197_135-50.png,0,50-50,0,1,80,1.8708166,1
594,100,90,123_44,DS,100-123_44-20.png,90-123_44-20.png,0,20-20,180,1,81,2.490846,1
595,33,217,150_213,DS,33-150_213-20.png,217-150_213-20.png,0,20-20,0,1,82,1.7349834,1
596,0,0,216_220,ISOD,216_220-35.png,216_220-65.png,30,35-65,0,1,83,1.4250174,0
597,20,208,65_13,DD,20-65_13-80.png,208-65_13-95.png,15,80-95,0,1,84,2.2675412,0
598,33,217,150_213,DD,33-150_213-35.png,217-150_213-65.png,30,35-65,180,1,85,3.3236158,0
599,26,38,90_17,DS,26-90_17-5.png,38-90_17-5.png,0,5-May,0,1,86,2.2177732,1
600,0,0,65_13,ISOD,65_13-65.png,65_13-35.png,30,65-35,180,1,87,2.1877642,1
601,94,37,131_41,DD,94-131_41-95.png,37-131_41-5.png,90,95-5,0,1,88,1.3213993,1
602,100,90,123_44,DD,100-123_44-35.png,90-123_44-65.png,30,35-65,180,1,89,2.7575345,1
603,0,0,222_139,ISOS,222_139-20.png,222_139-20.png,0,20-20,0,1,90,1.6836312,1
604,49,49,87_146,SS,49-87_146-50.png,151-87_146-50.png,0,50-50,180,1,91,1.9896843,1
605,0,0,131_41,ISOD,131_41-35.png,131_41-65.png,30,35-65,0,1,92,4.203707,0
606,66,57,140_143,DS,66-140_143-20.png,57-140_143-20.png,0,20-20,180,1,93,3.167879,1
607,142,58,222_139,DS,142-222_139-35.png,58-222_139-35.png,0,35-35,180,1,94,2.0699973,1
608,0,0,25_7,ISOS,25_7-20.png,25_7-20.png,0,20-20,0,1,95,1.8760066,1
609,128,128,96_30,SD,128-96_30-65.png,128-96_30-35.png,30,65-35,180,1,96,1.8763855,0
610,0,0,225_128,ISOS,225_128-50.png,225_128-50.png,0,50-50,0,1,97,1.8004656,1
611,0,0,87_146,ISOS,87_146-80.png,87_146-80.png,0,80-80,180,1,98,1.996961,1
612,94,94,131_41,SD,94-131_41-95.png,94-131_41-5.png,90,95-5,180,1,99,1.7130642,1
613,24,24,76_2,SS,24-76_2-50.png,160-76_2-50.png,0,50-50,180,1,100,1.55898,1
614,13,13,225_128,SS,13-225_128-80.png,96-225_128-80.png,0,80-80,0,1,101,3.59706,1
615,123,44,100_125,DD,123-100_125-5.png,44-100_125-65.png,60,May-65,0,1,102,1.8828868,1
616,0,0,215_126,ISOD,215_126-5.png,215_126-65.png,60,May-65,180,1,103,2.5828526,1
617,77,77,153_152,SD,77-153_152-95.png,77-153_152-5.png,90,95-5,180,1,104,3.444868,0
618,100,100,123_44,SS,100-123_44-65.png,90-123_44-65.png,0,65-65,180,1,105,1.4150592,1
619,0,0,225_128,ISOD,225_128-65.png,225_128-35.png,30,65-35,0,1,106,3.3471446,0
620,0,0,217_33,ISOD,217_33-35.png,217_33-65.png,30,35-65,180,1,107,1.6272081,0
621,0,0,52_145,ISOD,52_145-35.png,52_145-50.png,15,35-50,0,1,108,1.723334,0
622,145,52,148_66,DS,145-148_66-20.png,52-148_66-20.png,0,20-20,180,1,109,1.5053438,1
623,100,100,123_44,SS,100-123_44-50.png,90-123_44-50.png,0,50-50,180,1,110,3.0653663,1
624,0,0,217_33,ISOD,217_33-5.png,217_33-65.png,60,May-65,180,1,111,3.1514988,1
625,0,0,100_125,ISOS,100_125-95.png,100_125-95.png,0,95-95,0,1,112,1.6355757,1
626,152,153,215_126,DD,152-215_126-35.png,153-215_126-65.png,30,35-65,0,1,113,1.9076382,1
627,213,213,58_142,SD,213-58_142-35.png,213-58_142-50.png,15,35-50,180,1,114,2.5881584,0
628,7,25,147_55,DD,7-147_55-5.png,25-147_55-95.png,90,May-95,0,1,115,2.1622627,1
629,123,123,100_125,SD,123-100_125-5.png,123-100_125-65.png,60,May-65,0,1,116,1.5983505,0
630,0,0,208_20,ISOS,208_20-65.png,208_20-65.png,0,65-65,180,1,117,1.8944046,1
631,45,45,160_24,SS,45-160_24-50.png,76-160_24-50.png,0,50-50,0,1,118,2.3539836,1
632,125,17,38_9,DD,125-38_9-35.png,17-38_9-65.png,30,35-65,180,1,119,1.4940423,0
633,77,77,153_152,SS,77-153_152-65.png,215-153_152-65.png,0,65-65,0,1,120,2.742226,1
634,100,90,123_44,DD,100-123_44-35.png,90-123_44-65.png,30,35-65,0,1,121,1.8002793,0
635,20,20,65_13,SD,20-65_13-5.png,20-65_13-95.png,90,May-95,180,1,122,3.9382958,0
636,0,0,160_24,ISOD,160_24-50.png,160_24-65.png,15,50-65,0,1,123,3.4824698,0
637,192,111,216_220,DS,192-216_220-50.png,111-216_220-50.png,0,50-50,180,1,124,1.8786273,1
638,0,0,160_24,ISOS,160_24-80.png,160_24-80.png,0,80-80,0,1,125,3.316624,1
639,152,152,215_126,SS,152-215_126-50.png,153-215_126-50.png,0,50-50,180,1,126,1.7927928,1
640,129,131,37_94,DD,129-37_94-50.png,131-37_94-65.png,15,50-65,180,1,127,2.4688852,0
641,0,0,151_49,ISOD,151_49-80.png,151_49-95.png,15,80-95,0,1,128,2.8208933,0
642,66,57,140_143,DD,66-140_143-65.png,57-140_143-35.png,30,65-35,180,1,129,1.8875217,0
643,152,152,215_126,SD,152-215_126-35.png,152-215_126-65.png,30,35-65,0,1,130,3.7215123,1
644,0,0,216_220,ISOS,216_220-35.png,216_220-35.png,0,35-35,0,1,131,1.5597044,1
645,143,143,57_45,SD,143-57_45-35.png,143-57_45-50.png,15,35-50,0,1,132,1.3637218,0
646,145,145,148_66,SD,145-148_66-5.png,145-148_66-95.png,90,May-95,180,1,133,3.1673133,0
647,0,0,96_30,ISOD,96_30-65.png,96_30-35.png,30,65-35,180,1,134,1.0914253,0
648,49,49,87_146,SS,49-87_146-20.png,151-87_146-20.png,0,20-20,180,1,135,1.5875694,1
649,0,0,131_41,ISOS,131_41-20.png,131_41-20.png,0,20-20,0,1,136,1.4476084,1
650,0,0,52_145,ISOS,52_145-5.png,52_145-5.png,0,5-May,0,1,137,1.345649,1
651,33,217,150_213,DD,33-150_213-95.png,217-150_213-5.png,90,95-5,0,1,138,1.5297341,1
652,0,0,147_55,ISOS,147_55-20.png,147_55-20.png,0,20-20,180,1,139,1.417852,1
653,2,2,93_8,SD,2-93_8-50.png,2-93_8-65.png,15,50-65,180,1,140,1.4578838,0
654,0,0,225_128,ISOS,225_128-65.png,225_128-65.png,0,65-65,0,1,141,1.7219392,1
655,145,52,148_66,DD,145-148_66-35.png,52-148_66-50.png,15,35-50,180,1,142,1.9940099,0
656,0,0,150_213,ISOS,150_213-80.png,150_213-80.png,0,80-80,0,1,143,1.3660688,1
657,143,143,57_45,SS,143-57_45-5.png,140-57_45-5.png,0,5-May,0,1,144,4.196927,1
658,0,0,208_20,ISOS,208_20-50.png,208_20-50.png,0,50-50,180,1,145,2.2150786,1
659,143,140,57_45,DS,143-57_45-50.png,140-57_45-50.png,0,50-50,180,1,146,2.3227282,1
660,0,0,38_9,ISOD,38_9-5.png,38_9-20.png,15,20-May,180,1,147,1.7989094,0
661,49,151,87_146,DS,49-87_146-50.png,151-87_146-50.png,0,50-50,180,1,148,1.9867878,1
662,0,0,65_13,ISOD,65_13-5.png,65_13-95.png,90,May-95,0,1,149,1.858963,1
663,0,0,100_125,ISOD,100_125-5.png,100_125-20.png,15,20-May,180,1,150,3.0350266,0
664,220,220,111_129,SS,220-111_129-20.png,216-111_129-20.png,0,20-20,0,1,151,2.097087,1
665,0,0,160_24,ISOD,160_24-35.png,160_24-65.png,30,35-65,0,1,152,3.0111637,1
666,9,148,52_145,DS,9-52_145-50.png,148-52_145-50.png,0,50-50,180,1,153,3.035299,1
667,143,140,57_45,DS,143-57_45-80.png,140-57_45-80.png,0,80-80,0,1,154,2.7416468,1
668,45,76,160_24,DD,45-160_24-35.png,76-160_24-65.png,30,35-65,180,1,155,3.3015158,1
669,126,150,217_33,DD,126-217_33-35.png,150-217_33-65.png,30,35-65,0,1,156,1.8857508,0
670,7,7,147_55,SS,7-147_55-50.png,25-147_55-50.png,0,50-50,0,1,157,1.9281248,1
671,7,25,147_55,DS,7-147_55-5.png,25-147_55-5.png,0,5-May,180,1,158,1.7682186,1
672,0,0,46_53,ISOS,46_53-65.png,46_53-65.png,0,65-65,0,1,159,1.6823268,1
673,125,125,38_9,SD,125-38_9-5.png,125-38_9-20.png,15,20-May,0,1,160,1.8143743,0
674,220,220,111_129,SS,220-111_129-80.png,216-111_129-80.png,0,80-80,0,1,161,3.2138991,1
675,0,0,38_9,ISOS,38_9-80.png,38_9-80.png,0,80-80,0,1,162,2.912096,1
676,146,146,25_7,SD,146-25_7-95.png,146-25_7-35.png,60,95-35,180,1,163,3.4881792,0
677,0,0,52_145,ISOD,52_145-65.png,52_145-35.png,30,65-35,180,1,164,1.4923245,0
678,0,0,37_94,ISOS,37_94-20.png,37_94-20.png,0,20-20,0,1,165,1.9764738,1
679,0,0,197_135,ISOD,197_135-65.png,197_135-35.png,30,65-35,0,1,166,1.8444642,0
680,0,0,111_129,ISOD,111_129-35.png,111_129-65.png,30,35-65,0,1,167,1.878542,0
681,139,139,197_135,SS,139-197_135-95.png,103-197_135-95.png,0,95-95,180,1,168,2.10862,1
682,0,0,140_143,ISOS,140_143-5.png,140_143-5.png,0,5-May,0,1,169,2.1926248,1
683,94,37,131_41,DD,94-131_41-50.png,37-131_41-65.png,15,50-65,180,1,170,2.7667215,0
684,192,192,216_220,SS,192-216_220-50.png,111-216_220-50.png,0,50-50,180,1,171,2.2588966,1
685,53,87,151_49,DS,53-151_49-50.png,87-151_49-50.png,0,50-50,180,1,172,1.8047624,1
686,0,0,148_66,ISOD,148_66-65.png,148_66-35.png,30,65-35,180,1,173,1.627511,0
687,0,0,57_45,ISOD,57_45-65.png,57_45-5.png,60,65-5,180,1,174,2.1635673,0
688,24,24,76_2,SD,24-76_2-50.png,24-76_2-65.png,15,50-65,180,1,175,1.7375982,0
689,41,65,208_20,DS,41-208_20-20.png,65-208_20-20.png,0,20-20,0,1,176,1.8996878,1
690,0,0,76_2,ISOD,76_2-50.png,76_2-65.png,15,50-65,180,1,177,1.693321,0
691,0,0,46_53,ISOD,46_53-35.png,46_53-65.png,30,35-65,0,1,178,2.3793411,1
692,94,94,131_41,SD,94-131_41-35.png,94-131_41-95.png,60,35-95,180,1,179,1.7055222,1
693,0,0,90_17,ISOS,90_17-50.png,90_17-50.png,0,50-50,0,1,180,1.4557186,1
694,41,65,208_20,DD,41-208_20-65.png,65-208_20-35.png,30,65-35,0,1,181,3.3915231,0
695,126,126,217_33,SS,126-217_33-50.png,150-217_33-50.png,0,50-50,0,1,182,2.741732,1
696,0,0,131_41,ISOS,131_41-50.png,131_41-50.png,0,50-50,0,1,183,4.3338313,1
697,24,160,76_2,DD,24-76_2-35.png,160-76_2-65.png,30,35-65,180,1,184,1.2158914,0
698,41,41,208_20,SS,41-208_20-35.png,65-208_20-35.png,0,35-35,0,1,185,1.7000494,1
699,0,0,153_152,ISOS,153_152-50.png,153_152-50.png,0,50-50,0,1,186,1.3320822,1
700,0,0,76_2,ISOD,76_2-50.png,76_2-65.png,15,50-65,0,1,187,1.912122,0
701,7,7,147_55,SS,7-147_55-50.png,25-147_55-50.png,0,50-50,180,1,188,1.9202489,1
702,0,0,57_45,ISOD,57_45-35.png,57_45-50.png,15,35-50,180,1,189,3.3087673,0
703,0,0,140_143,ISOS,140_143-20.png,140_143-20.png,0,20-20,0,1,190,1.3908402,1
704,20,208,65_13,DD,20-65_13-5.png,208-65_13-95.png,90,May-95,0,1,191,1.0969864,1
705,8,8,46_53,SD,8-46_53-35.png,8-46_53-65.png,30,35-65,0,1,192,2.8127334,0
706,100,100,123_44,SS,100-123_44-80.png,90-123_44-80.png,0,80-80,0,1,193,2.8048904,1
707,8,8,46_53,SD,8-46_53-35.png,8-46_53-65.png,30,35-65,180,1,194,2.7109036,0
708,0,0,160_24,ISOD,160_24-95.png,160_24-5.png,90,95-5,0,1,195,2.3809745,1
709,0,0,151_49,ISOS,151_49-65.png,151_49-65.png,0,65-65,0,1,196,1.9910659,1
710,26,26,90_17,SS,26-90_17-20.png,38-90_17-20.png,0,20-20,0,1,197,1.9371475,1
711,192,111,216_220,DS,192-216_220-20.png,111-216_220-20.png,0,20-20,180,1,198,2.127229,1
712,220,216,111_129,DS,220-111_129-20.png,216-111_129-20.png,0,20-20,0,1,199,2.2432811,1
713,0,0,37_94,ISOS,37_94-35.png,37_94-35.png,0,35-35,180,1,200,1.5693774,1
714,0,0,150_213,ISOD,150_213-5.png,150_213-65.png,60,May-65,180,1,201,2.989442,0
715,0,0,147_55,ISOS,147_55-20.png,147_55-20.png,0,20-20,0,1,202,2.6895676,1
716,125,125,38_9,SD,125-38_9-35.png,125-38_9-65.png,30,35-65,180,1,203,1.6121204,0
717,146,147,25_7,DS,146-25_7-95.png,147-25_7-95.png,0,95-95,0,1,204,2.4381762,1
718,49,49,87_146,SD,49-87_146-80.png,49-87_146-95.png,15,80-95,0,1,205,1.326245,0
719,0,0,103_192,ISOD,103_192-5.png,103_192-95.png,90,May-95,0,1,206,1.6523099,1
720,129,131,37_94,DS,129-37_94-50.png,131-37_94-50.png,0,50-50,0,1,207,1.6363484,1
721,24,24,76_2,SD,24-76_2-35.png,24-76_2-95.png,60,35-95,180,1,208,1.9639734,0
722,33,217,150_213,DS,33-150_213-80.png,217-150_213-80.png,0,80-80,180,1,209,1.2101055,1
723,123,123,100_125,SS,123-100_125-20.png,44-100_125-20.png,0,20-20,0,1,210,1.9940916,1
724,24,160,76_2,DS,24-76_2-50.png,160-76_2-50.png,0,50-50,0,1,211,1.9861964,1
725,0,0,208_20,ISOD,208_20-65.png,208_20-35.png,30,65-35,0,1,212,2.6442716,0
726,24,160,76_2,DD,24-76_2-35.png,160-76_2-95.png,60,35-95,0,1,213,2.660306,0
727,33,217,150_213,DD,33-150_213-5.png,217-150_213-20.png,15,20-May,180,1,214,2.8304513,0
728,0,0,208_20,ISOS,208_20-80.png,208_20-80.png,0,80-80,0,1,215,1.8545988,1
729,126,126,217_33,SD,126-217_33-5.png,126-217_33-20.png,15,20-May,180,1,216,1.4306262,0
730,9,9,52_145,SS,9-52_145-95.png,148-52_145-95.png,0,95-95,0,1,217,2.0666454,1
731,26,26,90_17,SS,26-90_17-65.png,38-90_17-65.png,0,65-65,0,1,218,2.3587644,1
732,9,148,52_145,DD,9-52_145-65.png,148-52_145-5.png,60,65-5,180,1,219,2.8662362,1
733,0,0,197_135,ISOS,197_135-5.png,197_135-5.png,0,5-May,0,1,220,1.9853431,1
734,0,0,225_128,ISOS,225_128-65.png,225_128-65.png,0,65-65,0,1,221,1.547488,1
735,20,20,65_13,SS,20-65_13-50.png,208-65_13-50.png,0,50-50,180,1,222,1.3854824,1
736,20,208,65_13,DD,20-65_13-95.png,208-65_13-35.png,60,95-35,0,1,223,1.9295346,1
737,0,0,93_8,ISOD,93_8-50.png,93_8-65.png,15,50-65,180,1,224,1.5416183,0
738,129,129,37_94,SS,129-37_94-5.png,131-37_94-5.png,0,5-May,180,1,225,1.2952218,1
739,100,90,123_44,DD,100-123_44-5.png,90-123_44-20.png,15,20-May,180,1,226,1.6993718,0
740,0,0,217_33,ISOS,217_33-80.png,217_33-80.png,0,80-80,180,1,227,1.6734915,1
741,0,0,150_213,ISOS,150_213-50.png,150_213-50.png,0,50-50,0,1,228,1.6574368,1
742,129,129,37_94,SD,129-37_94-50.png,129-37_94-65.png,15,50-65,0,1,229,1.2355796,0
743,0,0,153_152,ISOS,153_152-20.png,153_152-20.png,0,20-20,0,1,230,1.4955423,1
744,123,44,100_125,DS,123-100_125-5.png,44-100_125-5.png,0,5-May,180,1,231,1.6096667,1
745,213,222,58_142,DD,213-58_142-65.png,222-58_142-5.png,60,65-5,0,1,232,1.3057599,1
746,94,37,131_41,DD,94-131_41-50.png,37-131_41-65.png,15,50-65,0,1,233,2.7217658,0
747,0,0,153_152,ISOS,153_152-50.png,153_152-50.png,0,50-50,180,1,234,1.5438964,1
748,13,13,225_128,SD,13-225_128-80.png,13-225_128-95.png,15,80-95,180,1,235,1.2739029,0
749,126,150,217_33,DS,126-217_33-20.png,150-217_33-20.png,0,20-20,180,1,236,1.2160242,1
750,142,58,222_139,DS,142-222_139-80.png,58-222_139-80.png,0,80-80,0,1,237,2.3201025,1
751,129,131,37_94,DD,129-37_94-95.png,131-37_94-5.png,90,95-5,0,1,238,1.3981379,1
752,125,17,38_9,DD,125-38_9-95.png,17-38_9-5.png,90,95-5,180,1,239,1.7426659,1
753,7,7,147_55,SD,7-147_55-80.png,7-147_55-95.png,15,80-95,0,1,240,1.6429197,0
754,8,8,46_53,SD,8-46_53-50.png,8-46_53-65.png,15,50-65,180,1,241,1.9929171,0
755,9,148,52_145,DD,9-52_145-65.png,148-52_145-5.png,60,65-5,0,1,242,1.5025877,1
756,8,93,46_53,DD,8-46_53-95.png,93-46_53-5.png,90,95-5,180,1,243,1.3665988,1
757,33,33,150_213,SS,33-150_213-20.png,217-150_213-20.png,0,20-20,0,1,244,1.3267184,1
758,139,139,197_135,SD,139-197_135-65.png,139-197_135-5.png,60,65-5,180,1,245,1.7828238,1
759,152,153,215_126,DD,152-215_126-5.png,153-215_126-65.png,60,May-65,180,1,246,1.5208186,1
760,0,0,25_7,ISOD,25_7-65.png,25_7-35.png,30,65-35,180,1,247,1.3629091,0
761,139,103,197_135,DS,139-197_135-20.png,103-197_135-20.png,0,20-20,180,1,248,1.1449704,1
762,94,94,131_41,SD,94-131_41-35.png,94-131_41-65.png,30,35-65,180,1,249,1.5530353,0
763,135,135,103_192,SS,135-103_192-50.png,197-103_192-50.png,0,50-50,0,1,250,1.9030493,1
764,94,37,131_41,DS,94-131_41-50.png,37-131_41-50.png,0,50-50,180,1,251,1.689201,1
765,0,0,217_33,ISOS,217_33-50.png,217_33-50.png,0,50-50,0,1,252,1.6353115,1
766,0,0,38_9,ISOS,38_9-50.png,38_9-50.png,0,50-50,0,1,253,1.1452777,1
767,0,0,65_13,ISOS,65_13-50.png,65_13-50.png,0,50-50,0,1,254,0.87136495,1
768,0,0,215_126,ISOD,215_126-5.png,215_126-20.png,15,20-May,180,1,255,1.2874097,0
769,0,0,208_20,ISOD,208_20-5.png,208_20-95.png,90,May-95,180,1,256,2.5554807,1
770,66,66,140_143,SD,66-140_143-65.png,66-140_143-35.png,30,65-35,0,1,257,1.3260272,0
771,152,152,215_126,SD,152-215_126-5.png,152-215_126-20.png,15,20-May,180,1,258,1.7060789,0
772,0,0,160_24,ISOD,160_24-50.png,160_24-65.png,15,50-65,180,1,259,0.9481258,0
773,100,90,123_44,DS,100-123_44-80.png,90-123_44-80.png,0,80-80,0,1,260,2.5441756,1
774,24,24,76_2,SS,24-76_2-20.png,160-76_2-20.png,0,20-20,0,1,261,2.1718419,0
775,13,13,225_128,SS,13-225_128-35.png,96-225_128-35.png,0,35-35,0,1,262,1.7259681,1
776,146,147,25_7,DS,146-25_7-95.png,147-25_7-95.png,0,95-95,0,1,263,2.4039967,1
777,142,142,222_139,SD,142-222_139-35.png,142-222_139-50.png,15,35-50,0,1,264,1.5940454,0
778,126,150,217_33,DS,126-217_33-5.png,150-217_33-5.png,0,5-May,180,1,265,1.7741691,1
779,135,135,103_192,SD,135-103_192-5.png,135-103_192-95.png,90,May-95,0,1,266,1.3142427,1
780,123,123,100_125,SD,123-100_125-95.png,123-100_125-5.png,90,95-5,180,1,267,1.4882811,1
781,0,0,76_2,ISOS,76_2-80.png,76_2-80.png,0,80-80,180,1,268,1.1263767,1
782,0,0,150_213,ISOS,150_213-50.png,150_213-50.png,0,50-50,180,1,269,1.2946203,1
783,53,87,151_49,DD,53-151_49-65.png,87-151_49-35.png,30,65-35,180,1,270,3.4105206,0
784,142,142,222_139,SS,142-222_139-95.png,58-222_139-95.png,0,95-95,180,1,271,1.24492,1
785,0,0,87_146,ISOD,87_146-95.png,87_146-35.png,60,95-35,180,1,272,3.292593,0
786,24,24,76_2,SS,24-76_2-80.png,160-76_2-80.png,0,80-80,180,1,273,1.9927738,1
787,13,13,225_128,SS,13-225_128-20.png,96-225_128-20.png,0,20-20,180,1,274,1.9172992,1
788,146,147,25_7,DS,146-25_7-50.png,147-25_7-50.png,0,50-50,180,1,275,1.6813176,1
789,0,0,111_129,ISOD,111_129-95.png,111_129-5.png,90,95-5,0,1,276,1.4754136,1
790,0,0,38_9,ISOS,38_9-80.png,38_9-80.png,0,80-80,180,1,277,1.3394704,1
791,0,0,46_53,ISOS,46_53-80.png,46_53-80.png,0,80-80,180,1,278,1.1035336,1
792,125,125,38_9,SS,125-38_9-20.png,17-38_9-20.png,0,20-20,180,1,279,1.1831636,1
793,142,142,222_139,SD,142-222_139-65.png,142-222_139-35.png,30,65-35,0,1,280,1.3832196,0
794,213,213,58_142,SD,213-58_142-5.png,213-58_142-95.png,90,May-95,180,1,281,1.3012661,1
795,45,76,160_24,DD,45-160_24-95.png,76-160_24-5.png,90,95-5,180,1,282,1.1172749,1
796,152,152,215_126,SD,152-215_126-35.png,152-215_126-65.png,30,35-65,180,1,283,1.2752644,0
797,9,148,52_145,DS,9-52_145-50.png,148-52_145-50.png,0,50-50,0,1,284,2.2414622,1
798,145,145,148_66,SS,145-148_66-80.png,52-148_66-80.png,0,80-80,0,1,285,1.6835498,1
799,100,100,123_44,SD,100-123_44-5.png,100-123_44-65.png,60,May-65,0,1,286,1.5375433,1
800,0,0,38_9,ISOD,38_9-95.png,38_9-5.png,90,95-5,180,1,287,3.4176135,0
801,0,0,140_143,ISOD,140_143-65.png,140_143-35.png,30,65-35,180,1,288,3.3178723,0
802,13,96,225_128,DS,13-225_128-95.png,96-225_128-95.png,0,95-95,0,1,289,1.9759805,1
803,0,0,65_13,ISOS,65_13-65.png,65_13-65.png,0,65-65,180,1,290,1.03803,1
804,8,8,46_53,SD,8-46_53-50.png,8-46_53-65.png,15,50-65,0,1,291,1.1925812,0
805,146,146,25_7,SS,146-25_7-80.png,147-25_7-80.png,0,80-80,0,1,292,1.1406019,1
806,220,216,111_129,DD,220-111_129-35.png,216-111_129-95.png,60,35-95,180,1,293,1.3326639,1
807,192,192,216_220,SS,192-216_220-80.png,111-216_220-80.png,0,80-80,180,1,294,1.9967222,1
808,13,13,225_128,SD,13-225_128-95.png,13-225_128-35.png,60,95-35,180,1,295,1.5368198,1
809,0,0,103_192,ISOS,103_192-80.png,103_192-80.png,0,80-80,180,1,296,1.3424268,1
810,135,197,103_192,DS,135-103_192-80.png,197-103_192-80.png,0,80-80,180,1,297,1.5384766,1
811,0,0,153_152,ISOS,153_152-80.png,153_152-80.png,0,80-80,0,1,298,1.7945347,1
812,0,0,140_143,ISOD,140_143-65.png,140_143-5.png,60,65-5,0,1,299,1.1405922,1
813,0,0,87_146,ISOD,87_146-95.png,87_146-35.png,60,95-35,0,1,300,3.4987118,0
814,0,0,87_146,ISOS,87_146-50.png,87_146-50.png,0,50-50,0,1,301,1.9409086,1
815,66,66,140_143,SD,66-140_143-5.png,66-140_143-95.png,90,May-95,0,1,302,1.4108725,1
816,94,37,131_41,DD,94-131_41-35.png,37-131_41-65.png,30,35-65,180,1,303,2.4089587,0
817,143,140,57_45,DS,143-57_45-80.png,140-57_45-80.png,0,80-80,180,1,304,1.9389491,1
818,94,94,131_41,SS,94-131_41-35.png,37-131_41-35.png,0,35-35,0,1,305,2.671182,1
819,0,0,93_8,ISOD,93_8-35.png,93_8-95.png,60,35-95,180,1,306,3.2472053,1
820,0,0,222_139,ISOD,222_139-5.png,222_139-95.png,90,May-95,180,1,307,3.6432102,1
821,128,128,96_30,SS,128-96_30-50.png,225-96_30-50.png,0,50-50,0,1,308,2.4919114,1
822,0,0,148_66,ISOS,148_66-50.png,148_66-50.png,0,50-50,180,1,309,1.0620273,1
823,0,0,222_139,ISOS,222_139-80.png,222_139-80.png,0,80-80,180,1,310,1.2699776,1
824,0,0,90_17,ISOD,90_17-5.png,90_17-20.png,15,20-May,0,1,311,1.3199975,0
825,0,0,25_7,ISOS,25_7-65.png,25_7-65.png,0,65-65,0,1,312,1.2221789,1
826,213,213,58_142,SD,213-58_142-35.png,213-58_142-50.png,15,35-50,0,1,313,2.70172,0
827,0,0,93_8,ISOS,93_8-20.png,93_8-20.png,0,20-20,180,1,314,1.6698096,1
828,0,0,96_30,ISOS,96_30-80.png,96_30-80.png,0,80-80,180,1,315,1.4958992,1
829,0,0,58_142,ISOS,58_142-80.png,58_142-80.png,0,80-80,180,1,316,1.3479881,1
830,49,49,87_146,SD,49-87_146-5.png,49-87_146-95.png,90,May-95,0,1,317,3.274009,1
831,123,44,100_125,DD,123-100_125-95.png,44-100_125-5.png,90,95-5,0,1,318,1.4621435,1
832,0,0,131_41,ISOD,131_41-95.png,131_41-5.png,90,95-5,0,1,319,1.4141581,1
833,45,76,160_24,DS,45-160_24-20.png,76-160_24-20.png,0,20-20,0,1,320,1.3602346,1
834,0,0,37_94,ISOS,37_94-35.png,37_94-35.png,0,35-35,180,1,321,1.0042802,1
835,129,131,37_94,DD,129-37_94-50.png,131-37_94-65.png,15,50-65,0,1,322,1.4483776,0
836,33,217,150_213,DD,33-150_213-35.png,217-150_213-65.png,30,35-65,0,1,323,1.50043,0
837,0,0,216_220,ISOD,216_220-50.png,216_220-65.png,15,50-65,180,1,324,2.588468,0
838,0,0,215_126,ISOS,215_126-50.png,215_126-50.png,0,50-50,180,1,325,1.6986084,1
839,8,8,46_53,SD,8-46_53-35.png,8-46_53-95.png,60,35-95,0,1,326,1.650627,1
840,53,53,151_49,SD,53-151_49-5.png,53-151_49-95.png,90,May-95,0,1,327,1.3067452,1
841,0,0,148_66,ISOD,148_66-35.png,148_66-50.png,15,35-50,180,1,328,1.5092388,0
842,0,0,76_2,ISOS,76_2-20.png,76_2-20.png,0,20-20,180,1,329,1.1613511,1
843,7,25,147_55,DD,7-147_55-80.png,25-147_55-95.png,15,80-95,0,1,330,1.5573586,0
844,135,197,103_192,DS,135-103_192-50.png,197-103_192-50.png,0,50-50,180,1,331,1.8973829,1
845,0,0,37_94,ISOD,37_94-95.png,37_94-5.png,90,95-5,180,1,332,2.1094859,1
846,77,215,153_152,DS,77-153_152-5.png,215-153_152-5.png,0,5-May,180,1,333,1.0471247,1
847,9,9,52_145,SS,9-52_145-80.png,148-52_145-80.png,0,80-80,180,1,334,1.1971697,1
848,7,7,147_55,SD,7-147_55-80.png,7-147_55-95.png,15,80-95,180,1,335,1.057242,0
849,0,0,147_55,ISOD,147_55-5.png,147_55-95.png,90,May-95,180,1,336,1.7014252,1
850,0,0,111_129,ISOS,111_129-20.png,111_129-20.png,0,20-20,180,1,337,2.4295402,1
851,41,65,208_20,DS,41-208_20-95.png,65-208_20-95.png,0,95-95,0,1,338,3.3496299,1
852,45,76,160_24,DS,45-160_24-65.png,76-160_24-65.png,0,65-65,180,1,339,2.9997137,1
853,9,148,52_145,DS,9-52_145-35.png,148-52_145-35.png,0,35-35,180,1,340,2.6917899,1
854,26,38,90_17,DD,26-90_17-95.png,38-90_17-5.png,90,95-5,0,1,341,1.4759318,1
855,0,0,57_45,ISOS,57_45-50.png,57_45-50.png,0,50-50,180,1,342,1.343988,1
856,123,123,100_125,SS,123-100_125-50.png,44-100_125-50.png,0,50-50,0,1,343,1.2380055,1
857,142,142,222_139,SD,142-222_139-5.png,142-222_139-95.png,90,May-95,0,1,344,1.330551,1
858,123,44,100_125,DD,123-100_125-35.png,44-100_125-65.png,30,35-65,0,1,345,1.3265623,0
859,77,215,153_152,DS,77-153_152-50.png,215-153_152-50.png,0,50-50,0,1,346,2.7166796,1
860,66,57,140_143,DD,66-140_143-35.png,57-140_143-50.png,15,35-50,180,1,347,1.2010398,0
861,0,0,96_30,ISOD,96_30-5.png,96_30-95.png,90,May-95,0,1,348,1.3083547,1
862,9,9,52_145,SD,9-52_145-5.png,9-52_145-95.png,90,May-95,180,1,349,2.8424652,1
863,143,140,57_45,DD,143-57_45-5.png,140-57_45-95.png,90,May-95,180,1,350,1.878492,0
864,0,0,160_24,ISOS,160_24-50.png,160_24-50.png,0,50-50,180,1,351,1.772582,1
865,0,0,103_192,ISOS,103_192-35.png,103_192-35.png,0,35-35,0,1,352,1.2526104,1
866,94,37,131_41,DS,94-131_41-20.png,37-131_41-20.png,0,20-20,0,1,353,2.0986876,1
867,41,41,208_20,SD,41-208_20-65.png,41-208_20-35.png,30,65-35,180,1,354,1.2067796,0
868,9,148,52_145,DD,9-52_145-65.png,148-52_145-35.png,30,65-35,0,1,355,2.932884,0
869,2,2,93_8,SS,2-93_8-80.png,46-93_8-80.png,0,80-80,0,1,356,1.444942,1
870,8,8,46_53,SD,8-46_53-35.png,8-46_53-95.png,60,35-95,180,1,357,2.0630105,1
871,94,94,131_41,SS,94-131_41-35.png,37-131_41-35.png,0,35-35,180,1,358,1.5091165,1
872,139,103,197_135,DD,139-197_135-65.png,103-197_135-35.png,30,65-35,0,1,359,1.2951503,0
873,49,151,87_146,DD,49-87_146-5.png,151-87_146-95.png,90,May-95,0,1,360,1.4872273,1
874,128,128,96_30,SS,128-96_30-20.png,225-96_30-20.png,0,20-20,0,1,361,1.1292715,1
875,0,0,150_213,ISOS,150_213-5.png,150_213-5.png,0,5-May,180,1,362,1.8753383,1
876,66,66,140_143,SD,66-140_143-65.png,66-140_143-5.png,60,65-5,0,1,363,3.2598767,1
877,77,215,153_152,DD,77-153_152-5.png,215-153_152-20.png,15,20-May,0,1,364,1.4459213,0
878,13,96,225_128,DS,13-225_128-95.png,96-225_128-95.png,0,95-95,180,1,365,1.2260193,1
879,0,0,147_55,ISOS,147_55-80.png,147_55-80.png,0,80-80,0,1,366,1.0501688,1
880,0,0,96_30,ISOD,96_30-65.png,96_30-35.png,30,65-35,0,1,367,1.0121222,0
881,26,26,90_17,SS,26-90_17-65.png,38-90_17-65.png,0,65-65,180,1,368,1.2297513,1
882,135,135,103_192,SD,135-103_192-35.png,135-103_192-50.png,15,35-50,0,1,369,2.151841,0
883,0,0,100_125,ISOS,100_125-95.png,100_125-95.png,0,95-95,180,1,370,1.0784285,1
884,126,150,217_33,DS,126-217_33-80.png,150-217_33-80.png,0,80-80,0,1,371,2.0239494,1
885,26,38,90_17,DS,26-90_17-5.png,38-90_17-5.png,0,5-May,180,1,372,1.7800515,1
886,0,0,215_126,ISOD,215_126-5.png,215_126-20.png,15,20-May,0,1,373,1.1801367,0
887,9,9,52_145,SD,9-52_145-35.png,9-52_145-50.png,15,35-50,0,1,374,1.1241643,0
888,142,58,222_139,DD,142-222_139-35.png,58-222_139-50.png,15,35-50,0,1,375,1.2881776,0
889,0,0,153_152,ISOD,153_152-35.png,153_152-65.png,30,35-65,180,1,376,0.98635,0
890,24,160,76_2,DS,24-76_2-20.png,160-76_2-20.png,0,20-20,0,1,377,1.1003414,1
891,145,145,148_66,SD,145-148_66-35.png,145-148_66-50.png,15,35-50,180,1,378,1.0683234,0
892,100,100,123_44,SS,100-123_44-80.png,90-123_44-80.png,0,80-80,180,1,379,1.2884904,1
893,45,76,160_24,DD,45-160_24-35.png,76-160_24-65.png,30,35-65,0,1,380,2.372464,0
894,0,0,57_45,ISOS,57_45-35.png,57_45-35.png,0,35-35,180,1,381,1.4885542,1
895,53,53,151_49,SS,53-151_49-35.png,87-151_49-35.png,0,35-35,0,1,382,1.5288012,1
896,0,0,103_192,ISOD,103_192-65.png,103_192-5.png,60,65-5,180,1,383,1.341151,0
897,0,0,222_139,ISOD,222_139-35.png,222_139-50.png,15,35-50,180,1,384,3.3234296,0
898,2,2,93_8,SD,2-93_8-35.png,2-93_8-65.png,30,35-65,180,1,385,2.7190905,0
899,0,0,87_146,ISOD,87_146-80.png,87_146-95.png,15,80-95,0,1,386,1.4131404,0
900,0,0,123_44,ISOS,123_44-95.png,123_44-95.png,0,95-95,0,1,387,1.4731438,1
901,100,90,123_44,DS,100-123_44-5.png,90-123_44-5.png,0,5-May,0,1,388,2.2593884,1
902,49,151,87_146,DD,49-87_146-80.png,151-87_146-95.png,15,80-95,180,1,389,1.2673566,0
903,0,0,103_192,ISOD,103_192-65.png,103_192-35.png,30,65-35,180,1,390,1.0454024,0
904,0,0,96_30,ISOD,96_30-5.png,96_30-95.png,90,May-95,180,1,391,1.4994498,1
905,126,126,217_33,SS,126-217_33-65.png,150-217_33-65.png,0,65-65,180,1,392,1.3475435,1
906,146,147,25_7,DS,146-25_7-80.png,147-25_7-80.png,0,80-80,180,1,393,1.2056258,1
907,0,0,37_94,ISOS,37_94-35.png,37_94-35.png,0,35-35,0,1,394,1.2896109,1
908,0,0,147_55,ISOD,147_55-80.png,147_55-95.png,15,80-95,180,1,395,1.1056678,0
909,0,0,90_17,ISOS,90_17-95.png,90_17-95.png,0,95-95,180,1,396,0.92778766,1
910,26,26,90_17,SD,26-90_17-35.png,26-90_17-65.png,30,35-65,0,1,397,3.2998798,0
911,152,153,215_126,DS,152-215_126-20.png,153-215_126-20.png,0,20-20,180,1,398,1.2779659,1
912,0,0,111_129,ISOS,111_129-35.png,111_129-35.png,0,35-35,180,1,399,1.9443913,1
913,152,153,215_126,DD,152-215_126-35.png,153-215_126-65.png,30,35-65,180,1,400,3.3384397,0
914,13,13,225_128,SD,13-225_128-65.png,13-225_128-35.png,30,65-35,180,1,401,2.596565,0
915,0,0,222_139,ISOS,222_139-80.png,222_139-80.png,0,80-80,0,1,402,1.1862305,1
916,0,0,225_128,ISOS,225_128-65.png,225_128-65.png,0,65-65,180,1,403,1.5563217,1
917,77,215,153_152,DD,77-153_152-95.png,215-153_152-5.png,90,95-5,180,1,404,2.4463317,1
918,13,96,225_128,DS,13-225_128-50.png,96-225_128-50.png,0,50-50,0,1,405,1.8724914,1
919,0,0,57_45,ISOD,57_45-65.png,57_45-35.png,30,65-35,180,1,406,2.1205237,0
920,13,96,225_128,DS,13-225_128-95.png,96-225_128-95.png,0,95-95,0,1,407,1.5625755,1
921,77,215,153_152,DD,77-153_152-5.png,215-153_152-65.png,60,May-65,0,1,408,1.5926782,1
922,126,126,217_33,SD,126-217_33-5.png,126-217_33-20.png,15,20-May,0,1,409,1.6408038,0
923,0,0,111_129,ISOS,111_129-20.png,111_129-20.png,0,20-20,0,1,410,1.0688721,1
924,192,111,216_220,DD,192-216_220-35.png,111-216_220-65.png,30,35-65,0,1,411,1.032889,0
925,129,131,37_94,DS,129-37_94-50.png,131-37_94-50.png,0,50-50,180,1,412,1.0290358,1
926,24,160,76_2,DS,24-76_2-65.png,160-76_2-65.png,0,65-65,180,1,413,0.9310168,1
927,2,46,93_8,DS,2-93_8-50.png,46-93_8-50.png,0,50-50,180,1,414,1.5170519,1
928,53,53,151_49,SD,53-151_49-65.png,53-151_49-35.png,30,65-35,180,1,415,0.86708295,0
929,142,58,222_139,DS,142-222_139-20.png,58-222_139-20.png,0,20-20,0,1,416,1.1951542,1
930,13,13,225_128,SD,13-225_128-5.png,13-225_128-95.png,90,May-95,180,1,417,1.4012301,1
931,146,146,25_7,SS,146-25_7-20.png,147-25_7-20.png,0,20-20,0,1,418,1.693832,1
932,45,45,160_24,SD,45-160_24-95.png,45-160_24-5.png,90,95-5,0,1,419,1.2457634,1
933,24,24,76_2,SS,24-76_2-5.png,160-76_2-5.png,0,5-May,180,1,420,1.1997834,1
934,0,0,76_2,ISOD,76_2-35.png,76_2-65.png,30,35-65,0,1,421,1.3499022,0
935,94,94,131_41,SD,94-131_41-35.png,94-131_41-95.png,60,35-95,0,1,422,1.4939423,1
936,2,46,93_8,DD,2-93_8-35.png,46-93_8-65.png,30,35-65,180,1,423,1.5716003,0
937,24,160,76_2,DS,24-76_2-65.png,160-76_2-65.png,0,65-65,0,1,424,0.9697079,1
938,0,0,65_13,ISOS,65_13-50.png,65_13-50.png,0,50-50,180,1,425,2.059752,1
939,142,142,222_139,SS,142-222_139-80.png,58-222_139-80.png,0,80-80,0,1,426,2.6377535,1
940,126,150,217_33,DD,126-217_33-95.png,150-217_33-5.png,90,95-5,180,1,427,1.507872,1
941,9,9,52_145,SD,9-52_145-35.png,9-52_145-50.png,15,35-50,180,1,428,2.311932,0
942,66,57,140_143,DS,66-140_143-80.png,57-140_143-80.png,0,80-80,180,1,429,1.2760303,1
943,7,25,147_55,DS,7-147_55-20.png,25-147_55-20.png,0,20-20,0,1,430,1.1780953,1
944,66,66,140_143,SS,66-140_143-95.png,57-140_143-95.png,0,95-95,0,1,431,1.2341924,1
945,0,0,93_8,ISOS,93_8-80.png,93_8-80.png,0,80-80,0,1,432,3.2784643,1
946,20,208,65_13,DS,20-65_13-95.png,208-65_13-95.png,0,95-95,0,1,433,1.7730631,1
947,0,0,147_55,ISOD,147_55-95.png,147_55-35.png,60,95-35,180,1,434,1.6011199,1
948,143,143,57_45,SD,143-57_45-35.png,143-57_45-50.png,15,35-50,180,1,435,2.229127,0
949,20,20,65_13,SD,20-65_13-80.png,20-65_13-95.png,15,80-95,0,1,436,1.5432475,0
950,0,0,100_125,ISOD,100_125-5.png,100_125-65.png,60,May-65,0,1,437,1.3108174,1
951,0,0,58_142,ISOD,58_142-65.png,58_142-35.png,30,65-35,180,1,438,3.6269352,0
952,2,46,93_8,DD,2-93_8-50.png,46-93_8-65.png,15,50-65,180,1,439,2.1830087,0
953,2,46,93_8,DS,2-93_8-65.png,46-93_8-65.png,0,65-65,180,1,440,1.3051442,1
954,139,103,197_135,DS,139-197_135-80.png,103-197_135-80.png,0,80-80,180,1,441,2.6072261,1
955,0,0,222_139,ISOS,222_139-5.png,222_139-5.png,0,5-May,180,1,442,1.433304,1
956,26,38,90_17,DD,26-90_17-35.png,38-90_17-65.png,30,35-65,180,1,443,3.3553586,0
957,2,46,93_8,DD,2-93_8-95.png,46-93_8-5.png,90,95-5,180,1,444,1.3155032,1
958,24,24,76_2,SS,24-76_2-50.png,160-76_2-50.png,0,50-50,0,1,445,2.393467,1
959,0,0,197_135,ISOS,197_135-5.png,197_135-5.png,0,5-May,180,1,446,1.5356413,1
960,0,0,65_13,ISOD,65_13-95.png,65_13-35.png,60,95-35,0,1,447,1.7116983,1
961,0,0,103_192,ISOD,103_192-35.png,103_192-50.png,15,35-50,0,1,448,2.6917152,0
962,77,77,153_152,SS,77-153_152-80.png,215-153_152-80.png,0,80-80,0,1,449,3.1617649,1
963,0,0,100_125,ISOD,100_125-95.png,100_125-5.png,90,95-5,180,1,450,2.3343687,1
964,20,208,65_13,DD,20-65_13-65.png,208-65_13-35.png,30,65-35,180,1,451,1.6104852,0
965,0,0,37_94,ISOS,37_94-80.png,37_94-80.png,0,80-80,0,1,452,1.6066152,1
966,94,94,131_41,SD,94-131_41-95.png,94-131_41-5.png,90,95-5,0,1,453,1.2526201,1
967,0,0,100_125,ISOD,100_125-35.png,100_125-65.png,30,35-65,180,1,454,1.6202502,0
968,0,0,208_20,ISOD,208_20-5.png,208_20-95.png,90,May-95,0,1,455,1.548277,1
969,146,146,25_7,SD,146-25_7-5.png,146-25_7-95.png,90,May-95,0,1,456,1.5723659,0
970,129,129,37_94,SS,129-37_94-80.png,131-37_94-80.png,0,80-80,0,1,457,1.4364562,1
971,9,9,52_145,SS,9-52_145-95.png,148-52_145-95.png,0,95-95,180,1,458,1.4144915,1
972,0,0,111_129,ISOS,111_129-80.png,111_129-80.png,0,80-80,0,1,459,1.1385376,1
973,0,0,208_20,ISOS,208_20-20.png,208_20-20.png,0,20-20,0,1,460,1.2085022,1
974,145,145,148_66,SD,145-148_66-65.png,145-148_66-5.png,60,65-5,180,1,461,1.2505916,1
975,126,150,217_33,DD,126-217_33-5.png,150-217_33-20.png,15,20-May,0,1,462,2.1426108,0
976,2,2,93_8,SD,2-93_8-35.png,2-93_8-95.png,60,35-95,0,1,463,1.4128156,1
977,94,94,131_41,SS,94-131_41-50.png,37-131_41-50.png,0,50-50,0,1,464,1.8248601,1
978,49,49,87_146,SS,49-87_146-80.png,151-87_146-80.png,0,80-80,180,1,465,1.7629436,1
979,0,0,123_44,ISOS,123_44-50.png,123_44-50.png,0,50-50,0,1,466,1.1669956,1
980,126,126,217_33,SS,126-217_33-50.png,150-217_33-50.png,0,50-50,180,1,467,1.6030499,1
981,142,142,222_139,SS,142-222_139-95.png,58-222_139-95.png,0,95-95,0,1,468,2.3650918,1
982,0,0,38_9,ISOD,38_9-5.png,38_9-65.png,60,May-65,0,1,469,3.0330923,1
983,41,65,208_20,DD,41-208_20-95.png,65-208_20-35.png,60,95-35,180,1,470,1.7598025,1
984,0,0,217_33,ISOD,217_33-95.png,217_33-5.png,90,95-5,180,1,471,1.6598084,1
985,143,140,57_45,DS,143-57_45-65.png,140-57_45-65.png,0,65-65,180,1,472,1.1559044,1
986,49,151,87_146,DS,49-87_146-95.png,151-87_146-95.png,0,95-95,180,1,473,0.97769886,1
987,128,225,96_30,DD,128-96_30-5.png,225-96_30-95.png,90,May-95,180,1,474,3.2439492,0
988,135,197,103_192,DD,135-103_192-5.png,197-103_192-95.png,90,May-95,0,1,475,1.1377405,1
989,77,77,153_152,SD,77-153_152-5.png,77-153_152-65.png,60,May-65,0,1,476,3.1956232,0
990,0,0,197_135,ISOD,197_135-35.png,197_135-50.png,15,35-50,0,1,477,1.7078066,0
991,213,213,58_142,SS,213-58_142-20.png,222-58_142-20.png,0,20-20,180,1,478,1.5918658,1
992,24,24,76_2,SD,24-76_2-35.png,24-76_2-65.png,30,35-65,0,1,479,1.6299284,0
993,0,0,96_30,ISOS,96_30-50.png,96_30-50.png,0,50-50,0,1,480,2.872176,1
994,192,192,216_220,SD,192-216_220-35.png,192-216_220-95.png,60,35-95,180,1,481,1.2942239,1
995,0,0,93_8,ISOS,93_8-80.png,93_8-80.png,0,80-80,180,1,482,1.8323015,1
996,45,45,160_24,SS,45-160_24-80.png,76-160_24-80.png,0,80-80,180,1,483,1.4923035,1
997,152,153,215_126,DS,152-215_126-80.png,153-215_126-80.png,0,80-80,180,1,484,2.0525377,1
998,123,123,100_125,SD,123-100_125-5.png,123-100_125-65.png,60,May-65,180,1,485,2.3804815,1
999,0,0,87_146,ISOD,87_146-65.png,87_146-35.png,30,65-35,0,1,486,0.9270581,0
1000,41,41,208_20,SS,41-208_20-20.png,65-208_20-20.png,0,20-20,0,1,487,2.2130709,1
1001,139,103,197_135,DD,139-197_135-5.png,103-197_135-95.png,90,May-95,0,1,488,2.961183,1
1002,33,33,150_213,SS,33-150_213-95.png,217-150_213-95.png,0,95-95,0,1,489,1.8733065,1
1003,192,111,216_220,DD,192-216_220-50.png,111-216_220-65.png,15,50-65,0,1,490,1.5909328,0
1004,8,93,46_53,DS,8-46_53-50.png,93-46_53-50.png,0,50-50,0,1,491,1.236908,1
1005,220,216,111_129,DD,220-111_129-95.png,216-111_129-5.png,90,95-5,180,1,492,2.3710377,1
1006,146,147,25_7,DS,146-25_7-95.png,147-25_7-95.png,0,95-95,180,1,493,1.77912,1
1007,0,0,57_45,ISOS,57_45-20.png,57_45-20.png,0,20-20,180,1,494,1.2171713,1
1008,41,65,208_20,DS,41-208_20-20.png,65-208_20-20.png,0,20-20,180,1,495,1.7072204,1
1009,41,65,208_20,DS,41-208_20-80.png,65-208_20-80.png,0,80-80,0,1,496,1.539305,1
1010,0,0,208_20,ISOD,208_20-80.png,208_20-95.png,15,80-95,180,1,497,1.4033493,0
1011,142,58,222_139,DD,142-222_139-65.png,58-222_139-5.png,60,65-5,0,1,498,1.5895693,1
1012,0,0,208_20,ISOS,208_20-20.png,208_20-20.png,0,20-20,180,1,499,1.163479,1
1013,0,0,217_33,ISOD,217_33-5.png,217_33-20.png,15,20-May,0,1,500,1.76557,0
1014,66,66,140_143,SS,66-140_143-95.png,57-140_143-95.png,0,95-95,0,1,501,1.2695851,1
1015,135,197,103_192,DD,135-103_192-5.png,197-103_192-95.png,90,May-95,180,1,502,1.6277153,1
1016,125,125,38_9,SS,125-38_9-50.png,17-38_9-50.png,0,50-50,0,1,503,2.2517667,1
1017,129,131,37_94,DD,129-37_94-35.png,131-37_94-95.png,60,35-95,0,1,504,2.819859,0
1018,0,0,65_13,ISOD,65_13-5.png,65_13-95.png,90,May-95,180,1,505,1.4663435,1
1019,45,45,160_24,SD,45-160_24-35.png,45-160_24-65.png,30,35-65,0,1,506,1.828472,0
1020,145,52,148_66,DD,145-148_66-5.png,52-148_66-95.png,90,May-95,0,1,507,1.4825593,1
1021,20,208,65_13,DS,20-65_13-20.png,208-65_13-20.png,0,20-20,0,1,508,0.98660356,1
1022,8,8,46_53,SS,8-46_53-80.png,93-46_53-80.png,0,80-80,0,1,509,1.0726666,1
1023,100,90,123_44,DD,100-123_44-5.png,90-123_44-20.png,15,20-May,0,1,510,1.2562551,0
1024,0,0,57_45,ISOD,57_45-5.png,57_45-95.png,90,May-95,0,1,511,1.4322788,1
1025,128,225,96_30,DD,128-96_30-95.png,225-96_30-35.png,60,95-35,0,1,0,2.5534093,0
1026,0,0,140_143,ISOD,140_143-65.png,140_143-5.png,60,65-5,180,1,1,3.145049,1
1027,0,0,123_44,ISOD,123_44-5.png,123_44-65.png,60,May-65,0,1,2,1.8431114,1
1028,0,0,37_94,ISOS,37_94-20.png,37_94-20.png,0,20-20,180,1,3,1.2953274,1
1029,20,20,65_13,SD,20-65_13-65.png,20-65_13-35.png,30,65-35,0,1,4,2.8353624,1
1030,0,0,96_30,ISOS,96_30-80.png,96_30-80.png,0,80-80,0,1,5,1.2173948,1
1031,145,145,148_66,SS,145-148_66-50.png,52-148_66-50.png,0,50-50,0,1,6,1.2714018,1
1032,192,192,216_220,SD,192-216_220-50.png,192-216_220-65.png,15,50-65,0,1,7,1.0615594,0
1033,213,213,58_142,SS,213-58_142-80.png,222-58_142-80.png,0,80-80,180,1,8,1.1015875,1
1034,129,129,37_94,SD,129-37_94-35.png,129-37_94-65.png,30,35-65,0,1,9,1.3816446,0
1035,0,0,225_128,ISOD,225_128-95.png,225_128-35.png,60,95-35,180,1,10,2.5116684,1
1036,53,87,151_49,DS,53-151_49-20.png,87-151_49-20.png,0,20-20,180,1,11,1.3218093,1
1037,41,41,208_20,SS,41-208_20-50.png,65-208_20-50.png,0,50-50,180,1,12,1.3899211,1
1038,0,0,208_20,ISOS,208_20-80.png,208_20-80.png,0,80-80,180,1,13,1.4519837,1
1039,128,128,96_30,SS,128-96_30-20.png,225-96_30-20.png,0,20-20,180,1,14,1.4959946,1
1040,0,0,123_44,ISOS,123_44-20.png,123_44-20.png,0,20-20,0,1,15,1.2060435,1
1041,0,0,150_213,ISOS,150_213-80.png,150_213-80.png,0,80-80,180,1,16,1.650618,1
1042,0,0,123_44,ISOD,123_44-5.png,123_44-20.png,15,20-May,0,1,17,1.5432271,0
1043,8,93,46_53,DS,8-46_53-80.png,93-46_53-80.png,0,80-80,180,1,18,1.6467193,1
1044,94,94,131_41,SS,94-131_41-80.png,37-131_41-80.png,0,80-80,180,1,19,1.4508215,1
1045,94,37,131_41,DD,94-131_41-35.png,37-131_41-95.png,60,35-95,0,1,20,1.3864161,1
1046,7,7,147_55,SD,7-147_55-5.png,7-147_55-95.png,90,May-95,0,1,21,1.4904035,1
1047,192,111,216_220,DS,192-216_220-20.png,111-216_220-20.png,0,20-20,0,1,22,1.7245035,1
1048,33,33,150_213,SD,33-150_213-5.png,33-150_213-65.png,60,May-65,180,1,23,3.32058,0
1049,0,0,148_66,ISOS,148_66-50.png,148_66-50.png,0,50-50,0,1,24,1.3487012,1
1050,26,26,90_17,SD,26-90_17-5.png,26-90_17-65.png,60,May-65,180,1,25,2.650689,1
1051,0,0,123_44,ISOD,123_44-95.png,123_44-5.png,90,95-5,180,1,26,1.2528913,1
1052,0,0,160_24,ISOD,160_24-95.png,160_24-5.png,90,95-5,180,1,27,1.7108803,1
1053,66,66,140_143,SS,66-140_143-80.png,57-140_143-80.png,0,80-80,0,1,28,1.5990016,1
1054,0,0,100_125,ISOS,100_125-80.png,100_125-80.png,0,80-80,180,1,29,2.9150429,1
1055,2,2,93_8,SS,2-93_8-80.png,46-93_8-80.png,0,80-80,180,1,30,1.7450953,1
1056,126,150,217_33,DS,126-217_33-5.png,150-217_33-5.png,0,5-May,0,1,31,1.8631942,1
1057,152,153,215_126,DS,152-215_126-50.png,153-215_126-50.png,0,50-50,0,1,32,2.1012506,1
1058,53,53,151_49,SD,53-151_49-95.png,53-151_49-35.png,60,95-35,180,1,33,1.1873477,1
1059,220,220,111_129,SS,220-111_129-50.png,216-111_129-50.png,0,50-50,180,1,34,1.1378424,1
1060,0,0,58_142,ISOD,58_142-65.png,58_142-5.png,60,65-5,0,1,35,2.9239028,1
1061,8,8,46_53,SS,8-46_53-20.png,93-46_53-20.png,0,20-20,180,1,36,1.4079756,1
1062,0,0,147_55,ISOS,147_55-95.png,147_55-95.png,0,95-95,0,1,37,1.7580421,1
1063,0,0,150_213,ISOS,150_213-20.png,150_213-20.png,0,20-20,180,1,38,1.4077003,1
1064,94,94,131_41,SD,94-131_41-50.png,94-131_41-65.png,15,50-65,180,1,39,2.5817053,0
1065,123,44,100_125,DD,123-100_125-5.png,44-100_125-20.png,15,20-May,180,1,40,1.7998601,0
1066,0,0,148_66,ISOS,148_66-20.png,148_66-20.png,0,20-20,180,1,41,1.2418633,1
1067,0,0,197_135,ISOS,197_135-20.png,197_135-20.png,0,20-20,180,1,42,1.6199436,1
1068,139,103,197_135,DD,139-197_135-35.png,103-197_135-50.png,15,35-50,0,1,43,1.8280916,0
1069,126,150,217_33,DS,126-217_33-5.png,150-217_33-5.png,0,5-May,180,1,44,2.2400808,1
1070,0,0,25_7,ISOD,25_7-95.png,25_7-35.png,60,95-35,0,1,45,1.774217,1
1071,7,25,147_55,DD,7-147_55-65.png,25-147_55-35.png,30,65-35,0,1,46,2.1103442,1
1072,13,96,225_128,DD,13-225_128-65.png,96-225_128-35.png,30,65-35,180,1,47,1.5662775,1
1073,0,0,217_33,ISOD,217_33-95.png,217_33-5.png,90,95-5,0,1,48,1.7025378,1
1074,143,140,57_45,DD,143-57_45-35.png,140-57_45-50.png,15,35-50,180,1,49,2.3045533,0
1075,77,215,153_152,DS,77-153_152-80.png,215-153_152-80.png,0,80-80,180,1,50,1.5411662,1
1076,0,0,76_2,ISOS,76_2-50.png,76_2-50.png,0,50-50,0,1,51,1.6732101,1
1077,0,0,197_135,ISOD,197_135-65.png,197_135-35.png,30,65-35,180,1,52,3.257297,0
1078,24,24,76_2,SS,24-76_2-20.png,160-76_2-20.png,0,20-20,180,1,53,1.237322,1
1079,24,24,76_2,SD,24-76_2-35.png,24-76_2-65.png,30,35-65,180,1,54,1.3254485,0
1080,2,2,93_8,SD,2-93_8-95.png,2-93_8-5.png,90,95-5,0,1,55,1.3430395,1
1081,0,0,148_66,ISOD,148_66-35.png,148_66-50.png,15,35-50,0,1,56,1.2931025,0
1082,7,7,147_55,SS,7-147_55-80.png,25-147_55-80.png,0,80-80,0,1,57,1.7671709,1
1083,0,0,93_8,ISOS,93_8-35.png,93_8-35.png,0,35-35,180,1,58,1.9552538,1
1084,33,33,150_213,SD,33-150_213-35.png,33-150_213-65.png,30,35-65,0,1,59,4.2792835,0
1085,125,17,38_9,DD,125-38_9-5.png,17-38_9-65.png,60,May-65,180,1,60,2.7173836,1
1086,77,77,153_152,SS,77-153_152-20.png,215-153_152-20.png,0,20-20,180,1,61,2.1795175,1
1087,45,76,160_24,DS,45-160_24-80.png,76-160_24-80.png,0,80-80,0,1,62,2.1755564,1
1088,66,66,140_143,SS,66-140_143-50.png,57-140_143-50.png,0,50-50,180,1,63,2.057739,1
1089,20,208,65_13,DS,20-65_13-80.png,208-65_13-80.png,0,80-80,180,1,64,1.9316981,1
1090,145,52,148_66,DS,145-148_66-50.png,52-148_66-50.png,0,50-50,180,1,65,1.269854,1
1091,0,0,140_143,ISOS,140_143-5.png,140_143-5.png,0,5-May,180,1,66,1.2179078,1
1092,192,192,216_220,SS,192-216_220-20.png,111-216_220-20.png,0,20-20,180,1,67,1.7724668,1
1093,66,57,140_143,DS,66-140_143-35.png,57-140_143-35.png,0,35-35,180,1,68,1.5905062,1
1094,139,103,197_135,DS,139-197_135-20.png,103-197_135-20.png,0,20-20,0,1,69,2.0905602,1
1095,26,38,90_17,DS,26-90_17-5.png,38-90_17-5.png,0,5-May,180,1,70,2.084629,1
1096,77,77,153_152,SD,77-153_152-5.png,77-153_152-65.png,60,May-65,180,1,71,2.2226279,0
1097,77,77,153_152,SD,77-153_152-5.png,77-153_152-20.png,15,20-May,180,1,72,2.2942772,0
1098,7,25,147_55,DS,7-147_55-5.png,25-147_55-5.png,0,5-May,0,1,73,2.0803483,1
1099,8,93,46_53,DD,8-46_53-50.png,93-46_53-65.png,15,50-65,0,1,74,1.5645223,0
1100,126,126,217_33,SD,126-217_33-95.png,126-217_33-5.png,90,95-5,0,1,75,2.544567,1
1101,100,100,123_44,SD,100-123_44-95.png,100-123_44-5.png,90,95-5,180,1,76,1.5365585,1
1102,9,148,52_145,DD,9-52_145-35.png,148-52_145-50.png,15,35-50,0,1,77,2.226633,0
1103,220,216,111_129,DD,220-111_129-35.png,216-111_129-65.png,30,35-65,180,1,78,1.3767998,0
1104,0,0,90_17,ISOD,90_17-5.png,90_17-65.png,60,May-65,180,1,79,3.0988727,1
1105,41,41,208_20,SS,41-208_20-50.png,65-208_20-50.png,0,50-50,0,1,80,2.4109685,1
1106,7,25,147_55,DS,7-147_55-50.png,25-147_55-50.png,0,50-50,180,1,81,1.2210243,1
1107,0,0,100_125,ISOS,100_125-50.png,100_125-50.png,0,50-50,180,1,82,1.4610026,1
1108,145,145,148_66,SS,145-148_66-20.png,52-148_66-20.png,0,20-20,180,1,83,1.6052859,1
1109,213,213,58_142,SD,213-58_142-65.png,213-58_142-35.png,30,65-35,0,1,84,3.0631738,0
1110,129,131,37_94,DS,129-37_94-65.png,131-37_94-65.png,0,65-65,0,1,85,1.3677969,1
1111,0,0,131_41,ISOD,131_41-35.png,131_41-65.png,30,35-65,180,1,86,1.6538396,1
1112,0,0,87_146,ISOS,87_146-50.png,87_146-50.png,0,50-50,180,1,87,1.391915,1
1113,2,46,93_8,DD,2-93_8-35.png,46-93_8-95.png,60,35-95,180,1,88,1.5039616,1
1114,0,0,222_139,ISOS,222_139-50.png,222_139-50.png,0,50-50,0,1,89,1.177976,1
1115,129,131,37_94,DS,129-37_94-65.png,131-37_94-65.png,0,65-65,0,1,90,1.9216576,1
1116,7,7,147_55,SD,7-147_55-65.png,7-147_55-35.png,30,65-35,180,1,91,1.3797132,1
1117,53,53,151_49,SS,53-151_49-50.png,87-151_49-50.png,0,50-50,180,1,92,1.1298088,1
1118,0,0,58_142,ISOS,58_142-20.png,58_142-20.png,0,20-20,0,1,93,1.6178191,1
1119,0,0,90_17,ISOD,90_17-95.png,90_17-5.png,90,95-5,0,1,94,1.1358657,1
1120,143,140,57_45,DD,143-57_45-65.png,140-57_45-5.png,60,65-5,0,1,95,3.5458884,1
1121,8,93,46_53,DD,8-46_53-35.png,93-46_53-65.png,30,35-65,0,1,96,3.402197,1
1122,13,13,225_128,SD,13-225_128-65.png,13-225_128-35.png,30,65-35,0,1,97,2.5923083,0
1123,0,0,197_135,ISOD,197_135-65.png,197_135-5.png,60,65-5,180,1,98,1.4844292,1
1124,145,145,148_66,SS,145-148_66-20.png,52-148_66-20.png,0,20-20,0,1,99,1.4184647,1
1125,139,103,197_135,DD,139-197_135-65.png,103-197_135-35.png,30,65-35,180,1,100,1.6425136,0
1126,7,7,147_55,SS,7-147_55-65.png,25-147_55-65.png,0,65-65,0,1,101,2.0269656,1
1127,0,0,65_13,ISOS,65_13-20.png,65_13-20.png,0,20-20,0,1,102,1.4931239,1
1128,0,0,217_33,ISOS,217_33-95.png,217_33-95.png,0,95-95,0,1,103,2.1291265,1
1129,0,0,151_49,ISOS,151_49-20.png,151_49-20.png,0,20-20,0,1,104,1.1512644,1
1130,0,0,225_128,ISOD,225_128-65.png,225_128-35.png,30,65-35,180,1,105,1.5313141,0
1131,142,142,222_139,SS,142-222_139-20.png,58-222_139-20.png,0,20-20,0,1,106,1.6869031,1
1132,0,0,65_13,ISOD,65_13-65.png,65_13-35.png,30,65-35,0,1,107,3.3889866,1
1133,13,13,225_128,SD,13-225_128-80.png,13-225_128-95.png,15,80-95,0,1,108,1.5410925,0
1134,0,0,37_94,ISOD,37_94-35.png,37_94-65.png,30,35-65,0,1,109,1.7931441,0
1135,146,146,25_7,SD,146-25_7-95.png,146-25_7-35.png,60,95-35,0,1,110,3.215162,1
1136,139,139,197_135,SS,139-197_135-50.png,103-197_135-50.png,0,50-50,180,1,111,1.2910972,1
1137,0,0,52_145,ISOS,52_145-50.png,52_145-50.png,0,50-50,0,1,112,1.4673235,1
1138,0,0,151_49,ISOS,151_49-80.png,151_49-80.png,0,80-80,0,1,113,1.3693849,1
1139,0,0,160_24,ISOS,160_24-35.png,160_24-35.png,0,35-35,0,1,114,1.7555498,1
1140,128,128,96_30,SS,128-96_30-65.png,225-96_30-65.png,0,65-65,180,1,115,1.92959,1
1141,139,139,197_135,SD,139-197_135-65.png,139-197_135-5.png,60,65-5,0,1,116,1.5036271,0
1142,123,123,100_125,SS,123-100_125-65.png,44-100_125-65.png,0,65-65,0,1,117,1.9196928,1
1143,152,152,215_126,SS,152-215_126-20.png,153-215_126-20.png,0,20-20,0,1,118,1.6397485,1
1144,45,76,160_24,DD,45-160_24-50.png,76-160_24-65.png,15,50-65,180,1,119,1.9943154,0
1145,146,147,25_7,DD,146-25_7-5.png,147-25_7-95.png,90,May-95,0,1,120,1.6704444,1
1146,26,26,90_17,SD,26-90_17-5.png,26-90_17-65.png,60,May-65,0,1,121,2.8344772,1
1147,0,0,160_24,ISOD,160_24-35.png,160_24-95.png,60,35-95,0,1,122,2.5005755,1
1148,0,0,215_126,ISOD,215_126-95.png,215_126-5.png,90,95-5,0,1,123,1.8401806,1
1149,24,160,76_2,DD,24-76_2-50.png,160-76_2-65.png,15,50-65,180,1,124,1.6302954,0
1150,146,147,25_7,DD,146-25_7-65.png,147-25_7-35.png,30,65-35,180,1,125,3.2324018,0
1151,0,0,25_7,ISOS,25_7-20.png,25_7-20.png,0,20-20,180,1,126,1.7424372,1
1152,0,0,216_220,ISOD,216_220-35.png,216_220-65.png,30,35-65,180,1,127,1.5985053,0
1153,8,93,46_53,DD,8-46_53-35.png,93-46_53-95.png,60,35-95,0,1,128,1.4785869,1
1154,94,37,131_41,DS,94-131_41-95.png,37-131_41-95.png,0,95-95,180,1,129,1.9608165,1
1155,100,100,123_44,SD,100-123_44-5.png,100-123_44-20.png,15,20-May,180,1,130,1.2926986,0
1156,146,147,25_7,DS,146-25_7-50.png,147-25_7-50.png,0,50-50,0,1,131,1.8287187,1
1157,152,153,215_126,DD,152-215_126-95.png,153-215_126-5.png,90,95-5,180,1,132,1.3369066,1
1158,8,93,46_53,DS,8-46_53-95.png,93-46_53-95.png,0,95-95,0,1,133,1.492953,1
1159,49,151,87_146,DD,49-87_146-65.png,151-87_146-35.png,30,65-35,180,1,134,3.5329516,0
1160,9,9,52_145,SD,9-52_145-65.png,9-52_145-35.png,30,65-35,180,1,135,1.9651549,0
1161,0,0,58_142,ISOD,58_142-65.png,58_142-35.png,30,65-35,0,1,136,2.213653,0
1162,0,0,25_7,ISOD,25_7-95.png,25_7-35.png,60,95-35,180,1,137,1.8717296,0
1163,0,0,131_41,ISOS,131_41-50.png,131_41-50.png,0,50-50,180,1,138,1.1278188,1
1164,152,153,215_126,DD,152-215_126-95.png,153-215_126-5.png,90,95-5,0,1,139,1.4218897,1
1165,26,26,90_17,SD,26-90_17-5.png,26-90_17-20.png,15,20-May,0,1,140,2.0314744,0
1166,0,0,103_192,ISOS,103_192-50.png,103_192-50.png,0,50-50,180,1,141,1.7655584,1
1167,41,65,208_20,DD,41-208_20-95.png,65-208_20-35.png,60,95-35,0,1,142,3.8035572,1
1168,125,17,38_9,DD,125-38_9-35.png,17-38_9-65.png,30,35-65,0,1,143,2.7377954,0
1169,0,0,25_7,ISOS,25_7-65.png,25_7-65.png,0,65-65,180,1,144,9.652094,1
1170,145,145,148_66,SS,145-148_66-80.png,52-148_66-80.png,0,80-80,180,1,145,1.5143509,1
1171,77,215,153_152,DD,77-153_152-95.png,215-153_152-5.png,90,95-5,0,1,146,2.414424,1
1172,45,45,160_24,SD,45-160_24-50.png,45-160_24-65.png,15,50-65,180,1,147,2.5049672,0
1173,0,0,150_213,ISOD,150_213-5.png,150_213-65.png,60,May-65,0,1,148,3.0489519,1
1174,213,213,58_142,SS,213-58_142-95.png,222-58_142-95.png,0,95-95,0,1,149,1.4450982,1
1175,146,147,25_7,DD,146-25_7-65.png,147-25_7-35.png,30,65-35,0,1,150,1.4672463,1
1176,146,146,25_7,SD,146-25_7-65.png,146-25_7-35.png,30,65-35,0,1,151,1.2508004,0
1177,0,0,25_7,ISOD,25_7-80.png,25_7-95.png,15,80-95,0,1,152,1.2588413,0
1178,53,87,151_49,DS,53-151_49-80.png,87-151_49-80.png,0,80-80,0,1,153,1.1849508,1
1179,0,0,216_220,ISOS,216_220-35.png,216_220-35.png,0,35-35,180,1,154,1.2290137,1
1180,152,153,215_126,DS,152-215_126-5.png,153-215_126-5.png,0,5-May,0,1,155,1.9549898,1
1181,142,58,222_139,DS,142-222_139-80.png,58-222_139-80.png,0,80-80,180,1,156,1.0751635,1
1182,0,0,52_145,ISOS,52_145-80.png,52_145-80.png,0,80-80,0,1,157,1.3810996,1
1183,0,0,52_145,ISOS,52_145-50.png,52_145-50.png,0,50-50,180,1,158,1.0851865,1
1184,66,57,140_143,DD,66-140_143-5.png,57-140_143-95.png,90,May-95,0,1,159,1.4732702,1
1185,94,94,131_41,SS,94-131_41-20.png,37-131_41-20.png,0,20-20,180,1,160,2.2793825,1
1186,33,217,150_213,DS,33-150_213-35.png,217-150_213-35.png,0,35-35,0,1,161,2.0953712,1
1187,126,150,217_33,DS,126-217_33-5.png,150-217_33-5.png,0,5-May,0,1,162,1.9114717,1
1188,0,0,225_128,ISOS,225_128-20.png,225_128-20.png,0,20-20,180,1,163,2.0015552,1
1189,0,0,46_53,ISOD,46_53-50.png,46_53-65.png,15,50-65,180,1,164,1.2617188,0
1190,128,225,96_30,DS,128-96_30-5.png,225-96_30-5.png,0,5-May,0,1,165,2.3476655,1
1191,142,142,222_139,SS,142-222_139-80.png,58-222_139-80.png,0,80-80,180,1,166,1.2442691,1
1192,77,77,153_152,SS,77-153_152-50.png,215-153_152-50.png,0,50-50,0,1,167,1.8722479,1
1193,0,0,151_49,ISOD,151_49-65.png,151_49-35.png,30,65-35,0,1,168,4.4483776,1
1194,192,192,216_220,SD,192-216_220-35.png,192-216_220-65.png,30,35-65,0,1,169,1.2205449,0
1195,0,0,57_45,ISOS,57_45-80.png,57_45-80.png,0,80-80,180,1,170,1.5741631,1
1196,94,37,131_41,DD,94-131_41-95.png,37-131_41-5.png,90,95-5,180,1,171,2.5522096,1
1197,0,0,46_53,ISOD,46_53-35.png,46_53-65.png,30,35-65,180,1,172,4.400322,0
1198,8,8,46_53,SS,8-46_53-50.png,93-46_53-50.png,0,50-50,0,1,173,1.6484371,1
1199,100,90,123_44,DD,100-123_44-5.png,90-123_44-65.png,60,May-65,0,1,174,1.7824928,1
1200,0,0,58_142,ISOS,58_142-80.png,58_142-80.png,0,80-80,0,1,175,1.6582297,1
1201,142,142,222_139,SD,142-222_139-65.png,142-222_139-35.png,30,65-35,180,1,176,1.846745,0
1202,0,0,197_135,ISOD,197_135-65.png,197_135-5.png,60,65-5,0,1,177,3.114612,1
1203,129,129,37_94,SD,129-37_94-95.png,129-37_94-5.png,90,95-5,180,1,178,3.322748,0
1204,13,96,225_128,DD,13-225_128-5.png,96-225_128-95.png,90,May-95,180,1,179,1.4270145,1
1205,41,41,208_20,SS,41-208_20-35.png,65-208_20-35.png,0,35-35,180,1,180,2.1589086,1
1206,33,217,150_213,DD,33-150_213-5.png,217-150_213-65.png,60,May-65,0,1,181,3.3474836,1
1207,0,0,208_20,ISOD,208_20-95.png,208_20-35.png,60,95-35,180,1,182,2.8555837,0
1208,53,53,151_49,SS,53-151_49-50.png,87-151_49-50.png,0,50-50,0,1,183,1.3197508,1
1209,41,41,208_20,SD,41-208_20-65.png,41-208_20-35.png,30,65-35,0,1,184,2.0797868,0
